[{"width":1920,"height":947,"webaudio":true,"browser":"chrome","browser_version":"113.0.0","mobile":false,"os":"Windows 10","fullscreen":true,"vsync_rate":59.66,"webcam":false,"microphone":true,"trial_type":"browser-check","trial_index":0,"time_elapsed":1157,"internal_node_id":"0.0-0.0","ID":"1","block_type":"mixed","rt":{},"response":{},"iksi":{}},{"trial_type":"html-button-response","trial_index":1,"time_elapsed":10270,"internal_node_id":"0.0-1.0","ID":"1","block_type":"mixed","rt":[9112],"stimulus":"\n      <img src = \"consent/imgs/ccp.png\" width=\"25%\">\n      <p>Welcome, this experiment requires your full attention for approximately 15 minutes.<\/p>\n<p><b>Important: This study can only be completed once. Reloading or pressing the back button will stop the study.<\/b><\/p>\n<p><b>Please complete this study on a desktop or laptop using Chrome or Firefox.<\/b><\/p>\n<p>Continue to consent form and instructions<\/p>\n      ","response":[0],"iksi":{}},{"trial_type":"external-html","trial_index":2,"time_elapsed":32809,"internal_node_id":"0.0-2.0","ID":"1","block_type":"mixed","rt":[21866],"response":{},"url":"consent/consent.html","iksi":{}},{"trial_type":"survey-html-form","trial_index":3,"time_elapsed":49107,"internal_node_id":"0.0-3.0","ID":"1","block_type":"mixed","rt":[16297],"response":{"age":["50"],"sex":["female"],"hand":["Right"],"vision":["Corrected"],"english":["First"]},"iksi":{}},{"trial_type":"html-keyboard-response","trial_index":4,"time_elapsed":363378,"internal_node_id":"0.0-4.0","ID":"1","block_type":"mixed","rt":[314270],"stimulus":"\n        <h2> Phase I instructions <\/h2>\n        <p>In this phase you will make judgments about words that describe personality characteristics or traits <\/p>\n        <p> Sometimes you will be asked to remember words that were just shown to you <\/p>\n        <p> There are 44 words to judge <\/p>\n        <p> After this phase you will be given a memory test for all of the words you saw <\/p>\n        <p>Press any key.<\/p>\n      ","response":[" "],"iksi":{}},{"trial_type":"html-keyboard-response","trial_index":5,"time_elapsed":371053,"internal_node_id":"0.0-5.0","ID":"1","block_type":"mixed","rt":[6659],"stimulus":"\n        <h2> Important <\/h2>\n        <p> There is a memory test after this phase <\/p>\n        <p> Please do not use external aids to help your performance <\/p>\n        <p> For example, please do not write down the words or take screenshots <\/p>\n        <p> The experiment is aimed at measuring unaided memory processes. <\/p>\n        <p> Press any key to begin.<\/p>\n      ","response":[" "],"iksi":{}},{"trial_type":"html-keyboard-response","trial_index":6,"time_elapsed":375068,"internal_node_id":"0.0-6.0-0.0","ID":"1","block_type":"mixed","rt":{},"stimulus":"<div>\n        <p> Is the following word written in upper case? <\/p>\n        <\/div>","response":{},"study_instruction":"case","letter_case":"upper","likeable":"high","target_word":"COMEDIAN","encoding_trial_type":"question","phase":"filler_start","encoding_recall":"no_recall","iksi":{}},{"trial_type":"html-button-response","trial_index":7,"time_elapsed":377843,"internal_node_id":"0.0-6.0-1.0","ID":"1","block_type":"mixed","rt":[2775],"stimulus":"<div>\n        <p> Is the following word written in upper case? <\/p>\n        <p> COMEDIAN <\/p>\n        <\/div>","response":[0],"study_instruction":"case","letter_case":"upper","likeable":"high","target_word":"COMEDIAN","encoding_trial_type":"study_word","phase":"filler_start","encoding_recall":"no_recall","iksi":{}},{"trial_type":"html-keyboard-response","trial_index":8,"time_elapsed":381845,"internal_node_id":"0.0-6.0-0.1","ID":"1","block_type":"mixed","rt":{},"stimulus":"<div>\n        <p> Would you use the following word to describe yourself? <\/p>\n        <\/div>","response":{},"study_instruction":"self","letter_case":"lower","likeable":"high","target_word":"stylish","encoding_trial_type":"question","phase":"filler_start","encoding_recall":"no_recall","iksi":{}},{"trial_type":"html-button-response","trial_index":9,"time_elapsed":383292,"internal_node_id":"0.0-6.0-1.1","ID":"1","block_type":"mixed","rt":[1446],"stimulus":"<div>\n        <p> Would you use the following word to describe yourself? <\/p>\n        <p> stylish <\/p>\n        <\/div>","response":[1],"study_instruction":"self","letter_case":"lower","likeable":"high","target_word":"stylish","encoding_trial_type":"study_word","phase":"filler_start","encoding_recall":"no_recall","iksi":{}},{"trial_type":"html-keyboard-response","trial_index":10,"time_elapsed":387302,"internal_node_id":"0.0-6.0-0.2","ID":"1","block_type":"mixed","rt":{},"stimulus":"<div>\n        <p> Does the following word have a positive meaning? <\/p>\n        <\/div>","response":{},"study_instruction":"semantic","letter_case":"upper","likeable":"low","target_word":"CARELESS","encoding_trial_type":"question","phase":"filler_start","encoding_recall":"no_recall","iksi":{}},{"trial_type":"html-button-response","trial_index":11,"time_elapsed":389228,"internal_node_id":"0.0-6.0-1.2","ID":"1","block_type":"mixed","rt":[1927],"stimulus":"<div>\n        <p> Does the following word have a positive meaning? <\/p>\n        <p> CARELESS <\/p>\n        <\/div>","response":[1],"study_instruction":"semantic","letter_case":"upper","likeable":"low","target_word":"CARELESS","encoding_trial_type":"study_word","phase":"filler_start","encoding_recall":"no_recall","iksi":{}},{"trial_type":"html-keyboard-response","trial_index":12,"time_elapsed":393244,"internal_node_id":"0.0-7.0-0.0","ID":"1","block_type":"mixed","rt":{},"stimulus":"<div>\n        <p> Does the following word have a positive meaning? <\/p>\n        <\/div>","response":{},"study_instruction":"semantic","letter_case":"upper","likeable":"high","target_word":"RELAXED","encoding_trial_type":"question","phase":"main_study","encoding_recall":"no_recall","iksi":{}},{"trial_type":"html-button-response","trial_index":13,"time_elapsed":394949,"internal_node_id":"0.0-7.0-1.0","ID":"1","block_type":"mixed","rt":[1704],"stimulus":"<div>\n        <p> Does the following word have a positive meaning? <\/p>\n        <p> RELAXED <\/p>\n        <\/div>","response":[0],"study_instruction":"semantic","letter_case":"upper","likeable":"high","target_word":"RELAXED","encoding_trial_type":"study_word","phase":"main_study","encoding_recall":"no_recall","iksi":{}},{"trial_type":"html-typing-response","trial_index":14,"time_elapsed":395951,"internal_node_id":"0.0-7.0-2.0","ID":"1","block_type":"mixed","rt":{},"response":{},"study_instruction":"semantic","letter_case":"upper","likeable":"high","target_word":"RELAXED","phase":"study_recall","encoding_recall":"no_recall","iksi":{}},{"trial_type":"html-keyboard-response","trial_index":15,"time_elapsed":396052,"internal_node_id":"0.0-7.0-3.0","ID":"1","block_type":"mixed","rt":{},"stimulus":"","response":{},"phase":"main_study","iksi":{}},{"trial_type":"html-keyboard-response","trial_index":16,"time_elapsed":399053,"internal_node_id":"0.0-7.0-0.1","ID":"1","block_type":"mixed","rt":{},"stimulus":"<div>\n        <p> Would you use the following word to describe yourself? <\/p>\n        <\/div>","response":{},"study_instruction":"self","letter_case":"upper","likeable":"high","target_word":"CORDIAL","encoding_trial_type":"question","phase":"main_study","encoding_recall":"recall","iksi":{}},{"trial_type":"html-button-response","trial_index":17,"time_elapsed":400806,"internal_node_id":"0.0-7.0-1.1","ID":"1","block_type":"mixed","rt":[1753],"stimulus":"<div>\n        <p> Would you use the following word to describe yourself? <\/p>\n        <p> CORDIAL <\/p>\n        <\/div>","response":[0],"study_instruction":"self","letter_case":"upper","likeable":"high","target_word":"CORDIAL","encoding_trial_type":"study_word","phase":"main_study","encoding_recall":"recall","iksi":{}},{"trial_type":"html-typing-response","trial_index":18,"time_elapsed":409319,"internal_node_id":"0.0-7.0-2.1","ID":"1","block_type":"mixed","rt":[3892,4464,4599,4866,5044,5209,5395,5727,6290],"stimulus":"<div>\n      <h2> Recall the last word <\/h2>\n      <p> Type the last word that you judged<\/p>\n      <\/div>","response":["c","o","r","d","i","a","l"," ","backspace"],"study_instruction":"self","letter_case":"upper","likeable":"high","target_word":"CORDIAL","phase":"study_recall","encoding_recall":"recall","iksi":[3892,572,135,267,178,165,186,332,563],"paragraph":"cordial"},{"trial_type":"html-keyboard-response","trial_index":19,"time_elapsed":409420,"internal_node_id":"0.0-7.0-3.1","ID":"1","block_type":"mixed","rt":{},"stimulus":"","response":{},"phase":"main_study","iksi":{}},{"trial_type":"html-keyboard-response","trial_index":20,"time_elapsed":412423,"internal_node_id":"0.0-7.0-0.2","ID":"1","block_type":"mixed","rt":{},"stimulus":"<div>\n        <p> Does the following word have a positive meaning? <\/p>\n        <\/div>","response":{},"study_instruction":"semantic","letter_case":"lower","likeable":"high","target_word":"direct","encoding_trial_type":"question","phase":"main_study","encoding_recall":"no_recall","iksi":{}},{"trial_type":"html-button-response","trial_index":21,"time_elapsed":417256,"internal_node_id":"0.0-7.0-1.2","ID":"1","block_type":"mixed","rt":[4833],"stimulus":"<div>\n        <p> Does the following word have a positive meaning? <\/p>\n        <p> direct <\/p>\n        <\/div>","response":[0],"study_instruction":"semantic","letter_case":"lower","likeable":"high","target_word":"direct","encoding_trial_type":"study_word","phase":"main_study","encoding_recall":"no_recall","iksi":{}},{"trial_type":"html-typing-response","trial_index":22,"time_elapsed":418265,"internal_node_id":"0.0-7.0-2.2","ID":"1","block_type":"mixed","rt":{},"response":{},"study_instruction":"semantic","letter_case":"lower","likeable":"high","target_word":"direct","phase":"study_recall","encoding_recall":"no_recall","iksi":{}},{"trial_type":"html-keyboard-response","trial_index":23,"time_elapsed":418366,"internal_node_id":"0.0-7.0-3.2","ID":"1","block_type":"mixed","rt":{},"stimulus":"","response":{},"phase":"main_study","iksi":{}},{"trial_type":"html-keyboard-response","trial_index":24,"time_elapsed":421367,"internal_node_id":"0.0-7.0-0.3","ID":"1","block_type":"mixed","rt":{},"stimulus":"<div>\n        <p> Would you use the following word to describe yourself? <\/p>\n        <\/div>","response":{},"study_instruction":"self","letter_case":"upper","likeable":"low","target_word":"NEUROTIC","encoding_trial_type":"question","phase":"main_study","encoding_recall":"recall","iksi":{}},{"trial_type":"html-button-response","trial_index":25,"time_elapsed":422697,"internal_node_id":"0.0-7.0-1.3","ID":"1","block_type":"mixed","rt":[1329],"stimulus":"<div>\n        <p> Would you use the following word to describe yourself? <\/p>\n        <p> NEUROTIC <\/p>\n        <\/div>","response":[1],"study_instruction":"self","letter_case":"upper","likeable":"low","target_word":"NEUROTIC","encoding_trial_type":"study_word","phase":"main_study","encoding_recall":"recall","iksi":{}},{"trial_type":"html-typing-response","trial_index":26,"time_elapsed":431810,"internal_node_id":"0.0-7.0-2.3","ID":"1","block_type":"mixed","rt":[2113,2467,3470,3645,3903,4165,4384,4581,5033,5271,5948,6076,6336,6739],"stimulus":"<div>\n      <h2> Recall the last word <\/h2>\n      <p> Type the last word that you judged<\/p>\n      <\/div>","response":["n","e","u","r","o","t","r","i","backspace","backspace","i","c"," ","backspace"],"study_instruction":"self","letter_case":"upper","likeable":"low","target_word":"NEUROTIC","phase":"study_recall","encoding_recall":"recall","iksi":[2113,354,1003,175,258,262,219,197,452,238,677,128,260,403],"paragraph":"neurotic"},{"trial_type":"html-keyboard-response","trial_index":27,"time_elapsed":431910,"internal_node_id":"0.0-7.0-3.3","ID":"1","block_type":"mixed","rt":{},"stimulus":"","response":{},"phase":"main_study","iksi":{}},{"trial_type":"html-keyboard-response","trial_index":28,"time_elapsed":434912,"internal_node_id":"0.0-7.0-0.4","ID":"1","block_type":"mixed","rt":{},"stimulus":"<div>\n        <p> Does the following word have a positive meaning? <\/p>\n        <\/div>","response":{},"study_instruction":"semantic","letter_case":"upper","likeable":"high","target_word":"BROTHERLY","encoding_trial_type":"question","phase":"main_study","encoding_recall":"recall","iksi":{}},{"trial_type":"html-button-response","trial_index":29,"time_elapsed":436266,"internal_node_id":"0.0-7.0-1.4","ID":"1","block_type":"mixed","rt":[1354],"stimulus":"<div>\n        <p> Does the following word have a positive meaning? <\/p>\n        <p> BROTHERLY <\/p>\n        <\/div>","response":[0],"study_instruction":"semantic","letter_case":"upper","likeable":"high","target_word":"BROTHERLY","encoding_trial_type":"study_word","phase":"main_study","encoding_recall":"recall","iksi":{}},{"trial_type":"html-typing-response","trial_index":30,"time_elapsed":442587,"internal_node_id":"0.0-7.0-2.4","ID":"1","block_type":"mixed","rt":[2508,2796,2941,3051,3243,3344,3430,3642,3988],"stimulus":"<div>\n      <h2> Recall the last word <\/h2>\n      <p> Type the last word that you judged<\/p>\n      <\/div>","response":["b","r","o","t","h","e","r","l","y"],"study_instruction":"semantic","letter_case":"upper","likeable":"high","target_word":"BROTHERLY","phase":"study_recall","encoding_recall":"recall","iksi":[2508,288,145,110,192,101,86,212,346],"paragraph":"brotherly"},{"trial_type":"html-keyboard-response","trial_index":31,"time_elapsed":442688,"internal_node_id":"0.0-7.0-3.4","ID":"1","block_type":"mixed","rt":{},"stimulus":"","response":{},"phase":"main_study","iksi":{}},{"trial_type":"html-keyboard-response","trial_index":32,"time_elapsed":445689,"internal_node_id":"0.0-7.0-0.5","ID":"1","block_type":"mixed","rt":{},"stimulus":"<div>\n        <p> Does the following word have a positive meaning? <\/p>\n        <\/div>","response":{},"study_instruction":"semantic","letter_case":"lower","likeable":"low","target_word":"disrespectful","encoding_trial_type":"question","phase":"main_study","encoding_recall":"no_recall","iksi":{}},{"trial_type":"html-button-response","trial_index":33,"time_elapsed":447036,"internal_node_id":"0.0-7.0-1.5","ID":"1","block_type":"mixed","rt":[1346],"stimulus":"<div>\n        <p> Does the following word have a positive meaning? <\/p>\n        <p> disrespectful <\/p>\n        <\/div>","response":[1],"study_instruction":"semantic","letter_case":"lower","likeable":"low","target_word":"disrespectful","encoding_trial_type":"study_word","phase":"main_study","encoding_recall":"no_recall","iksi":{}},{"trial_type":"html-typing-response","trial_index":34,"time_elapsed":448043,"internal_node_id":"0.0-7.0-2.5","ID":"1","block_type":"mixed","rt":{},"response":{},"study_instruction":"semantic","letter_case":"lower","likeable":"low","target_word":"disrespectful","phase":"study_recall","encoding_recall":"no_recall","iksi":{}},{"trial_type":"html-keyboard-response","trial_index":35,"time_elapsed":448144,"internal_node_id":"0.0-7.0-3.5","ID":"1","block_type":"mixed","rt":{},"stimulus":"","response":{},"phase":"main_study","iksi":{}},{"trial_type":"html-keyboard-response","trial_index":36,"time_elapsed":451145,"internal_node_id":"0.0-7.0-0.6","ID":"1","block_type":"mixed","rt":{},"stimulus":"<div>\n        <p> Does the following word have a positive meaning? <\/p>\n        <\/div>","response":{},"study_instruction":"semantic","letter_case":"upper","likeable":"low","target_word":"UNWISE","encoding_trial_type":"question","phase":"main_study","encoding_recall":"no_recall","iksi":{}},{"trial_type":"html-button-response","trial_index":37,"time_elapsed":453396,"internal_node_id":"0.0-7.0-1.6","ID":"1","block_type":"mixed","rt":[2251],"stimulus":"<div>\n        <p> Does the following word have a positive meaning? <\/p>\n        <p> UNWISE <\/p>\n        <\/div>","response":[1],"study_instruction":"semantic","letter_case":"upper","likeable":"low","target_word":"UNWISE","encoding_trial_type":"study_word","phase":"main_study","encoding_recall":"no_recall","iksi":{}},{"trial_type":"html-typing-response","trial_index":38,"time_elapsed":454411,"internal_node_id":"0.0-7.0-2.6","ID":"1","block_type":"mixed","rt":{},"response":{},"study_instruction":"semantic","letter_case":"upper","likeable":"low","target_word":"UNWISE","phase":"study_recall","encoding_recall":"no_recall","iksi":{}},{"trial_type":"html-keyboard-response","trial_index":39,"time_elapsed":454512,"internal_node_id":"0.0-7.0-3.6","ID":"1","block_type":"mixed","rt":{},"stimulus":"","response":{},"phase":"main_study","iksi":{}},{"trial_type":"html-keyboard-response","trial_index":40,"time_elapsed":457513,"internal_node_id":"0.0-7.0-0.7","ID":"1","block_type":"mixed","rt":{},"stimulus":"<div>\n        <p> Would you use the following word to describe yourself? <\/p>\n        <\/div>","response":{},"study_instruction":"self","letter_case":"lower","likeable":"low","target_word":"aggressive","encoding_trial_type":"question","phase":"main_study","encoding_recall":"recall","iksi":{}},{"trial_type":"html-button-response","trial_index":41,"time_elapsed":459021,"internal_node_id":"0.0-7.0-1.7","ID":"1","block_type":"mixed","rt":[1507],"stimulus":"<div>\n        <p> Would you use the following word to describe yourself? <\/p>\n        <p> aggressive <\/p>\n        <\/div>","response":[1],"study_instruction":"self","letter_case":"lower","likeable":"low","target_word":"aggressive","encoding_trial_type":"study_word","phase":"main_study","encoding_recall":"recall","iksi":{}},{"trial_type":"html-typing-response","trial_index":42,"time_elapsed":467126,"internal_node_id":"0.0-7.0-2.7","ID":"1","block_type":"mixed","rt":[2776,3068,3210,3453,3582,3750,4161,4540,4628,4830,4852,4923,5590,5795,5869,6107],"stimulus":"<div>\n      <h2> Recall the last word <\/h2>\n      <p> Type the last word that you judged<\/p>\n      <\/div>","response":["a","g","g","r","e","s","i","backspace","s","i","o","v","backspace","backspace","v","e"],"study_instruction":"self","letter_case":"lower","likeable":"low","target_word":"aggressive","phase":"study_recall","encoding_recall":"recall","iksi":[2776,292,142,243,129,168,411,379,88,202,22,71,667,205,74,238],"paragraph":"aggressive"},{"trial_type":"html-keyboard-response","trial_index":43,"time_elapsed":467228,"internal_node_id":"0.0-7.0-3.7","ID":"1","block_type":"mixed","rt":{},"stimulus":"","response":{},"phase":"main_study","iksi":{}},{"trial_type":"html-keyboard-response","trial_index":44,"time_elapsed":470241,"internal_node_id":"0.0-7.0-0.8","ID":"1","block_type":"mixed","rt":{},"stimulus":"<div>\n        <p> Would you use the following word to describe yourself? <\/p>\n        <\/div>","response":{},"study_instruction":"self","letter_case":"lower","likeable":"high","target_word":"tender","encoding_trial_type":"question","phase":"main_study","encoding_recall":"no_recall","iksi":{}},{"trial_type":"html-button-response","trial_index":45,"time_elapsed":472031,"internal_node_id":"0.0-7.0-1.8","ID":"1","block_type":"mixed","rt":[1789],"stimulus":"<div>\n        <p> Would you use the following word to describe yourself? <\/p>\n        <p> tender <\/p>\n        <\/div>","response":[0],"study_instruction":"self","letter_case":"lower","likeable":"high","target_word":"tender","encoding_trial_type":"study_word","phase":"main_study","encoding_recall":"no_recall","iksi":{}},{"trial_type":"html-typing-response","trial_index":46,"time_elapsed":473038,"internal_node_id":"0.0-7.0-2.8","ID":"1","block_type":"mixed","rt":{},"response":{},"study_instruction":"self","letter_case":"lower","likeable":"high","target_word":"tender","phase":"study_recall","encoding_recall":"no_recall","iksi":{}},{"trial_type":"html-keyboard-response","trial_index":47,"time_elapsed":473149,"internal_node_id":"0.0-7.0-3.8","ID":"1","block_type":"mixed","rt":{},"stimulus":"","response":{},"phase":"main_study","iksi":{}},{"trial_type":"html-keyboard-response","trial_index":48,"time_elapsed":476149,"internal_node_id":"0.0-7.0-0.9","ID":"1","block_type":"mixed","rt":{},"stimulus":"<div>\n        <p> Does the following word have a positive meaning? <\/p>\n        <\/div>","response":{},"study_instruction":"semantic","letter_case":"upper","likeable":"low","target_word":"MORONIC","encoding_trial_type":"question","phase":"main_study","encoding_recall":"recall","iksi":{}},{"trial_type":"html-button-response","trial_index":49,"time_elapsed":477887,"internal_node_id":"0.0-7.0-1.9","ID":"1","block_type":"mixed","rt":[1738],"stimulus":"<div>\n        <p> Does the following word have a positive meaning? <\/p>\n        <p> MORONIC <\/p>\n        <\/div>","response":[1],"study_instruction":"semantic","letter_case":"upper","likeable":"low","target_word":"MORONIC","encoding_trial_type":"study_word","phase":"main_study","encoding_recall":"recall","iksi":{}},{"trial_type":"html-typing-response","trial_index":50,"time_elapsed":485488,"internal_node_id":"0.0-7.0-2.9","ID":"1","block_type":"mixed","rt":[2697,2931,3066,3390,3805,4059,4271,4451,4591],"stimulus":"<div>\n      <h2> Recall the last word <\/h2>\n      <p> Type the last word that you judged<\/p>\n      <\/div>","response":["m","o","r","n","backspace","o","n","i","c"],"study_instruction":"semantic","letter_case":"upper","likeable":"low","target_word":"MORONIC","phase":"study_recall","encoding_recall":"recall","iksi":[2697,234,135,324,415,254,212,180,140],"paragraph":"moronic"},{"trial_type":"html-keyboard-response","trial_index":51,"time_elapsed":485598,"internal_node_id":"0.0-7.0-3.9","ID":"1","block_type":"mixed","rt":{},"stimulus":"","response":{},"phase":"main_study","iksi":{}},{"trial_type":"html-keyboard-response","trial_index":52,"time_elapsed":488599,"internal_node_id":"0.0-7.0-0.10","ID":"1","block_type":"mixed","rt":{},"stimulus":"<div>\n        <p> Would you use the following word to describe yourself? <\/p>\n        <\/div>","response":{},"study_instruction":"self","letter_case":"upper","likeable":"low","target_word":"UNOBSERVANT","encoding_trial_type":"question","phase":"main_study","encoding_recall":"recall","iksi":{}},{"trial_type":"html-button-response","trial_index":53,"time_elapsed":491537,"internal_node_id":"0.0-7.0-1.10","ID":"1","block_type":"mixed","rt":[2938],"stimulus":"<div>\n        <p> Would you use the following word to describe yourself? <\/p>\n        <p> UNOBSERVANT <\/p>\n        <\/div>","response":[1],"study_instruction":"self","letter_case":"upper","likeable":"low","target_word":"UNOBSERVANT","encoding_trial_type":"study_word","phase":"main_study","encoding_recall":"recall","iksi":{}},{"trial_type":"html-typing-response","trial_index":54,"time_elapsed":499906,"internal_node_id":"0.0-7.0-2.10","ID":"1","block_type":"mixed","rt":[2755,3256,3652,4118,4586,4759,4853,5178,5394,5681,6249],"stimulus":"<div>\n      <h2> Recall the last word <\/h2>\n      <p> Type the last word that you judged<\/p>\n      <\/div>","response":["u","n","o","b","s","e","r","v","a","n","t"],"study_instruction":"self","letter_case":"upper","likeable":"low","target_word":"UNOBSERVANT","phase":"study_recall","encoding_recall":"recall","iksi":[2755,501,396,466,468,173,94,325,216,287,568],"paragraph":"unobservant"},{"trial_type":"html-keyboard-response","trial_index":55,"time_elapsed":500007,"internal_node_id":"0.0-7.0-3.10","ID":"1","block_type":"mixed","rt":{},"stimulus":"","response":{},"phase":"main_study","iksi":{}},{"trial_type":"html-keyboard-response","trial_index":56,"time_elapsed":503015,"internal_node_id":"0.0-7.0-0.11","ID":"1","block_type":"mixed","rt":{},"stimulus":"<div>\n        <p> Is the following word written in upper case? <\/p>\n        <\/div>","response":{},"study_instruction":"case","letter_case":"upper","likeable":"high","target_word":"PRECISE","encoding_trial_type":"question","phase":"main_study","encoding_recall":"no_recall","iksi":{}},{"trial_type":"html-button-response","trial_index":57,"time_elapsed":504394,"internal_node_id":"0.0-7.0-1.11","ID":"1","block_type":"mixed","rt":[1378],"stimulus":"<div>\n        <p> Is the following word written in upper case? <\/p>\n        <p> PRECISE <\/p>\n        <\/div>","response":[0],"study_instruction":"case","letter_case":"upper","likeable":"high","target_word":"PRECISE","encoding_trial_type":"study_word","phase":"main_study","encoding_recall":"no_recall","iksi":{}},{"trial_type":"html-typing-response","trial_index":58,"time_elapsed":505401,"internal_node_id":"0.0-7.0-2.11","ID":"1","block_type":"mixed","rt":{},"response":{},"study_instruction":"case","letter_case":"upper","likeable":"high","target_word":"PRECISE","phase":"study_recall","encoding_recall":"no_recall","iksi":{}},{"trial_type":"html-keyboard-response","trial_index":59,"time_elapsed":505510,"internal_node_id":"0.0-7.0-3.11","ID":"1","block_type":"mixed","rt":{},"stimulus":"","response":{},"phase":"main_study","iksi":{}},{"trial_type":"html-keyboard-response","trial_index":60,"time_elapsed":508511,"internal_node_id":"0.0-7.0-0.12","ID":"1","block_type":"mixed","rt":{},"stimulus":"<div>\n        <p> Does the following word have a positive meaning? <\/p>\n        <\/div>","response":{},"study_instruction":"semantic","letter_case":"upper","likeable":"high","target_word":"CLEVER","encoding_trial_type":"question","phase":"main_study","encoding_recall":"recall","iksi":{}},{"trial_type":"html-button-response","trial_index":61,"time_elapsed":510019,"internal_node_id":"0.0-7.0-1.12","ID":"1","block_type":"mixed","rt":[1508],"stimulus":"<div>\n        <p> Does the following word have a positive meaning? <\/p>\n        <p> CLEVER <\/p>\n        <\/div>","response":[0],"study_instruction":"semantic","letter_case":"upper","likeable":"high","target_word":"CLEVER","encoding_trial_type":"study_word","phase":"main_study","encoding_recall":"recall","iksi":{}},{"trial_type":"html-typing-response","trial_index":62,"time_elapsed":516236,"internal_node_id":"0.0-7.0-2.12","ID":"1","block_type":"mixed","rt":[2180,2447,2617,3012,3269,3404],"stimulus":"<div>\n      <h2> Recall the last word <\/h2>\n      <p> Type the last word that you judged<\/p>\n      <\/div>","response":["c","l","e","v","e","r"],"study_instruction":"semantic","letter_case":"upper","likeable":"high","target_word":"CLEVER","phase":"study_recall","encoding_recall":"recall","iksi":[2180,267,170,395,257,135],"paragraph":"clever"},{"trial_type":"html-keyboard-response","trial_index":63,"time_elapsed":516336,"internal_node_id":"0.0-7.0-3.12","ID":"1","block_type":"mixed","rt":{},"stimulus":"","response":{},"phase":"main_study","iksi":{}},{"trial_type":"html-keyboard-response","trial_index":64,"time_elapsed":519336,"internal_node_id":"0.0-7.0-0.13","ID":"1","block_type":"mixed","rt":{},"stimulus":"<div>\n        <p> Does the following word have a positive meaning? <\/p>\n        <\/div>","response":{},"study_instruction":"semantic","letter_case":"lower","likeable":"high","target_word":"appreciative","encoding_trial_type":"question","phase":"main_study","encoding_recall":"recall","iksi":{}},{"trial_type":"html-button-response","trial_index":65,"time_elapsed":520956,"internal_node_id":"0.0-7.0-1.13","ID":"1","block_type":"mixed","rt":[1619],"stimulus":"<div>\n        <p> Does the following word have a positive meaning? <\/p>\n        <p> appreciative <\/p>\n        <\/div>","response":[0],"study_instruction":"semantic","letter_case":"lower","likeable":"high","target_word":"appreciative","encoding_trial_type":"study_word","phase":"main_study","encoding_recall":"recall","iksi":{}},{"trial_type":"html-typing-response","trial_index":66,"time_elapsed":545272,"internal_node_id":"0.0-7.0-2.13","ID":"1","block_type":"mixed","rt":[16797,16874,17036,17440,20193,20425,20780,21025,21331,22010],"stimulus":"<div>\n      <h2> Recall the last word <\/h2>\n      <p> Type the last word that you judged<\/p>\n      <\/div>","response":["p","r","e","c","i","e","v","e"," ","backspace"],"study_instruction":"semantic","letter_case":"lower","likeable":"high","target_word":"appreciative","phase":"study_recall","encoding_recall":"recall","iksi":[16797,77,162,404,2753,232,355,245,306,679],"paragraph":"precieve"},{"trial_type":"html-keyboard-response","trial_index":67,"time_elapsed":545373,"internal_node_id":"0.0-7.0-3.13","ID":"1","block_type":"mixed","rt":{},"stimulus":"","response":{},"phase":"main_study","iksi":{}},{"trial_type":"html-keyboard-response","trial_index":68,"time_elapsed":548381,"internal_node_id":"0.0-7.0-0.14","ID":"1","block_type":"mixed","rt":{},"stimulus":"<div>\n        <p> Does the following word have a positive meaning? <\/p>\n        <\/div>","response":{},"study_instruction":"semantic","letter_case":"lower","likeable":"low","target_word":"wannabe","encoding_trial_type":"question","phase":"main_study","encoding_recall":"recall","iksi":{}},{"trial_type":"html-button-response","trial_index":69,"time_elapsed":553168,"internal_node_id":"0.0-7.0-1.14","ID":"1","block_type":"mixed","rt":[4787],"stimulus":"<div>\n        <p> Does the following word have a positive meaning? <\/p>\n        <p> wannabe <\/p>\n        <\/div>","response":[1],"study_instruction":"semantic","letter_case":"lower","likeable":"low","target_word":"wannabe","encoding_trial_type":"study_word","phase":"main_study","encoding_recall":"recall","iksi":{}},{"trial_type":"html-typing-response","trial_index":70,"time_elapsed":559201,"internal_node_id":"0.0-7.0-2.14","ID":"1","block_type":"mixed","rt":[2142,2909,3046,3216,3511,3794],"stimulus":"<div>\n      <h2> Recall the last word <\/h2>\n      <p> Type the last word that you judged<\/p>\n      <\/div>","response":["w","a","n","a","b","e"],"study_instruction":"semantic","letter_case":"lower","likeable":"low","target_word":"wannabe","phase":"study_recall","encoding_recall":"recall","iksi":[2142,767,137,170,295,283],"paragraph":"wanabe"},{"trial_type":"html-keyboard-response","trial_index":71,"time_elapsed":559303,"internal_node_id":"0.0-7.0-3.14","ID":"1","block_type":"mixed","rt":{},"stimulus":"","response":{},"phase":"main_study","iksi":{}},{"trial_type":"html-keyboard-response","trial_index":72,"time_elapsed":562303,"internal_node_id":"0.0-7.0-0.15","ID":"1","block_type":"mixed","rt":{},"stimulus":"<div>\n        <p> Is the following word written in upper case? <\/p>\n        <\/div>","response":{},"study_instruction":"case","letter_case":"lower","likeable":"low","target_word":"controlling","encoding_trial_type":"question","phase":"main_study","encoding_recall":"no_recall","iksi":{}},{"trial_type":"html-button-response","trial_index":73,"time_elapsed":563730,"internal_node_id":"0.0-7.0-1.15","ID":"1","block_type":"mixed","rt":[1427],"stimulus":"<div>\n        <p> Is the following word written in upper case? <\/p>\n        <p> controlling <\/p>\n        <\/div>","response":[1],"study_instruction":"case","letter_case":"lower","likeable":"low","target_word":"controlling","encoding_trial_type":"study_word","phase":"main_study","encoding_recall":"no_recall","iksi":{}},{"trial_type":"html-typing-response","trial_index":74,"time_elapsed":564733,"internal_node_id":"0.0-7.0-2.15","ID":"1","block_type":"mixed","rt":{},"response":{},"study_instruction":"case","letter_case":"lower","likeable":"low","target_word":"controlling","phase":"study_recall","encoding_recall":"no_recall","iksi":{}},{"trial_type":"html-keyboard-response","trial_index":75,"time_elapsed":564833,"internal_node_id":"0.0-7.0-3.15","ID":"1","block_type":"mixed","rt":{},"stimulus":"","response":{},"phase":"main_study","iksi":{}},{"trial_type":"html-keyboard-response","trial_index":76,"time_elapsed":567839,"internal_node_id":"0.0-7.0-0.16","ID":"1","block_type":"mixed","rt":{},"stimulus":"<div>\n        <p> Would you use the following word to describe yourself? <\/p>\n        <\/div>","response":{},"study_instruction":"self","letter_case":"upper","likeable":"high","target_word":"ARTISTIC","encoding_trial_type":"question","phase":"main_study","encoding_recall":"no_recall","iksi":{}},{"trial_type":"html-button-response","trial_index":77,"time_elapsed":570579,"internal_node_id":"0.0-7.0-1.16","ID":"1","block_type":"mixed","rt":[2740],"stimulus":"<div>\n        <p> Would you use the following word to describe yourself? <\/p>\n        <p> ARTISTIC <\/p>\n        <\/div>","response":[1],"study_instruction":"self","letter_case":"upper","likeable":"high","target_word":"ARTISTIC","encoding_trial_type":"study_word","phase":"main_study","encoding_recall":"no_recall","iksi":{}},{"trial_type":"html-typing-response","trial_index":78,"time_elapsed":571587,"internal_node_id":"0.0-7.0-2.16","ID":"1","block_type":"mixed","rt":{},"response":{},"study_instruction":"self","letter_case":"upper","likeable":"high","target_word":"ARTISTIC","phase":"study_recall","encoding_recall":"no_recall","iksi":{}},{"trial_type":"html-keyboard-response","trial_index":79,"time_elapsed":571697,"internal_node_id":"0.0-7.0-3.16","ID":"1","block_type":"mixed","rt":{},"stimulus":"","response":{},"phase":"main_study","iksi":{}},{"trial_type":"html-keyboard-response","trial_index":80,"time_elapsed":574698,"internal_node_id":"0.0-7.0-0.17","ID":"1","block_type":"mixed","rt":{},"stimulus":"<div>\n        <p> Would you use the following word to describe yourself? <\/p>\n        <\/div>","response":{},"study_instruction":"self","letter_case":"lower","likeable":"low","target_word":"cold","encoding_trial_type":"question","phase":"main_study","encoding_recall":"no_recall","iksi":{}},{"trial_type":"html-button-response","trial_index":81,"time_elapsed":576027,"internal_node_id":"0.0-7.0-1.17","ID":"1","block_type":"mixed","rt":[1329],"stimulus":"<div>\n        <p> Would you use the following word to describe yourself? <\/p>\n        <p> cold <\/p>\n        <\/div>","response":[1],"study_instruction":"self","letter_case":"lower","likeable":"low","target_word":"cold","encoding_trial_type":"study_word","phase":"main_study","encoding_recall":"no_recall","iksi":{}},{"trial_type":"html-typing-response","trial_index":82,"time_elapsed":577041,"internal_node_id":"0.0-7.0-2.17","ID":"1","block_type":"mixed","rt":{},"response":{},"study_instruction":"self","letter_case":"lower","likeable":"low","target_word":"cold","phase":"study_recall","encoding_recall":"no_recall","iksi":{}},{"trial_type":"html-keyboard-response","trial_index":83,"time_elapsed":577142,"internal_node_id":"0.0-7.0-3.17","ID":"1","block_type":"mixed","rt":{},"stimulus":"","response":{},"phase":"main_study","iksi":{}},{"trial_type":"html-keyboard-response","trial_index":84,"time_elapsed":580156,"internal_node_id":"0.0-7.0-0.18","ID":"1","block_type":"mixed","rt":{},"stimulus":"<div>\n        <p> Is the following word written in upper case? <\/p>\n        <\/div>","response":{},"study_instruction":"case","letter_case":"upper","likeable":"low","target_word":"MALICIOUS","encoding_trial_type":"question","phase":"main_study","encoding_recall":"recall","iksi":{}},{"trial_type":"html-button-response","trial_index":85,"time_elapsed":582092,"internal_node_id":"0.0-7.0-1.18","ID":"1","block_type":"mixed","rt":[1935],"stimulus":"<div>\n        <p> Is the following word written in upper case? <\/p>\n        <p> MALICIOUS <\/p>\n        <\/div>","response":[0],"study_instruction":"case","letter_case":"upper","likeable":"low","target_word":"MALICIOUS","encoding_trial_type":"study_word","phase":"main_study","encoding_recall":"recall","iksi":{}},{"trial_type":"html-typing-response","trial_index":86,"time_elapsed":589509,"internal_node_id":"0.0-7.0-2.18","ID":"1","block_type":"mixed","rt":[2209,2362,2533,2779,2916,3045,3307,3593,3675,4212,5192],"stimulus":"<div>\n      <h2> Recall the last word <\/h2>\n      <p> Type the last word that you judged<\/p>\n      <\/div>","response":["m","a","l","i","c","i","o","u","s"," ","backspace"],"study_instruction":"case","letter_case":"upper","likeable":"low","target_word":"MALICIOUS","phase":"study_recall","encoding_recall":"recall","iksi":[2209,153,171,246,137,129,262,286,82,537,980],"paragraph":"malicious"},{"trial_type":"html-keyboard-response","trial_index":87,"time_elapsed":589610,"internal_node_id":"0.0-7.0-3.18","ID":"1","block_type":"mixed","rt":{},"stimulus":"","response":{},"phase":"main_study","iksi":{}},{"trial_type":"html-keyboard-response","trial_index":88,"time_elapsed":592611,"internal_node_id":"0.0-7.0-0.19","ID":"1","block_type":"mixed","rt":{},"stimulus":"<div>\n        <p> Is the following word written in upper case? <\/p>\n        <\/div>","response":{},"study_instruction":"case","letter_case":"lower","likeable":"low","target_word":"cruel","encoding_trial_type":"question","phase":"main_study","encoding_recall":"no_recall","iksi":{}},{"trial_type":"html-button-response","trial_index":89,"time_elapsed":593830,"internal_node_id":"0.0-7.0-1.19","ID":"1","block_type":"mixed","rt":[1218],"stimulus":"<div>\n        <p> Is the following word written in upper case? <\/p>\n        <p> cruel <\/p>\n        <\/div>","response":[1],"study_instruction":"case","letter_case":"lower","likeable":"low","target_word":"cruel","encoding_trial_type":"study_word","phase":"main_study","encoding_recall":"no_recall","iksi":{}},{"trial_type":"html-typing-response","trial_index":90,"time_elapsed":594832,"internal_node_id":"0.0-7.0-2.19","ID":"1","block_type":"mixed","rt":{},"response":{},"study_instruction":"case","letter_case":"lower","likeable":"low","target_word":"cruel","phase":"study_recall","encoding_recall":"no_recall","iksi":{}},{"trial_type":"html-keyboard-response","trial_index":91,"time_elapsed":594934,"internal_node_id":"0.0-7.0-3.19","ID":"1","block_type":"mixed","rt":{},"stimulus":"","response":{},"phase":"main_study","iksi":{}},{"trial_type":"html-keyboard-response","trial_index":92,"time_elapsed":597936,"internal_node_id":"0.0-7.0-0.20","ID":"1","block_type":"mixed","rt":{},"stimulus":"<div>\n        <p> Is the following word written in upper case? <\/p>\n        <\/div>","response":{},"study_instruction":"case","letter_case":"upper","likeable":"low","target_word":"SINISTER","encoding_trial_type":"question","phase":"main_study","encoding_recall":"recall","iksi":{}},{"trial_type":"html-button-response","trial_index":93,"time_elapsed":600070,"internal_node_id":"0.0-7.0-1.20","ID":"1","block_type":"mixed","rt":[2134],"stimulus":"<div>\n        <p> Is the following word written in upper case? <\/p>\n        <p> SINISTER <\/p>\n        <\/div>","response":[0],"study_instruction":"case","letter_case":"upper","likeable":"low","target_word":"SINISTER","encoding_trial_type":"study_word","phase":"main_study","encoding_recall":"recall","iksi":{}},{"trial_type":"html-typing-response","trial_index":94,"time_elapsed":605351,"internal_node_id":"0.0-7.0-2.20","ID":"1","block_type":"mixed","rt":[1691,1890,2142,2362,2565,2838,3161,3254],"stimulus":"<div>\n      <h2> Recall the last word <\/h2>\n      <p> Type the last word that you judged<\/p>\n      <\/div>","response":["s","i","n","i","s","t","e","r"],"study_instruction":"case","letter_case":"upper","likeable":"low","target_word":"SINISTER","phase":"study_recall","encoding_recall":"recall","iksi":[1691,199,252,220,203,273,323,93],"paragraph":"sinister"},{"trial_type":"html-keyboard-response","trial_index":95,"time_elapsed":605452,"internal_node_id":"0.0-7.0-3.20","ID":"1","block_type":"mixed","rt":{},"stimulus":"","response":{},"phase":"main_study","iksi":{}},{"trial_type":"html-keyboard-response","trial_index":96,"time_elapsed":608468,"internal_node_id":"0.0-7.0-0.21","ID":"1","block_type":"mixed","rt":{},"stimulus":"<div>\n        <p> Would you use the following word to describe yourself? <\/p>\n        <\/div>","response":{},"study_instruction":"self","letter_case":"lower","likeable":"high","target_word":"proficient","encoding_trial_type":"question","phase":"main_study","encoding_recall":"no_recall","iksi":{}},{"trial_type":"html-button-response","trial_index":97,"time_elapsed":610368,"internal_node_id":"0.0-7.0-1.21","ID":"1","block_type":"mixed","rt":[1899],"stimulus":"<div>\n        <p> Would you use the following word to describe yourself? <\/p>\n        <p> proficient <\/p>\n        <\/div>","response":[0],"study_instruction":"self","letter_case":"lower","likeable":"high","target_word":"proficient","encoding_trial_type":"study_word","phase":"main_study","encoding_recall":"no_recall","iksi":{}},{"trial_type":"html-typing-response","trial_index":98,"time_elapsed":611376,"internal_node_id":"0.0-7.0-2.21","ID":"1","block_type":"mixed","rt":{},"response":{},"study_instruction":"self","letter_case":"lower","likeable":"high","target_word":"proficient","phase":"study_recall","encoding_recall":"no_recall","iksi":{}},{"trial_type":"html-keyboard-response","trial_index":99,"time_elapsed":611484,"internal_node_id":"0.0-7.0-3.21","ID":"1","block_type":"mixed","rt":{},"stimulus":"","response":{},"phase":"main_study","iksi":{}},{"trial_type":"html-keyboard-response","trial_index":100,"time_elapsed":614485,"internal_node_id":"0.0-7.0-0.22","ID":"1","block_type":"mixed","rt":{},"stimulus":"<div>\n        <p> Would you use the following word to describe yourself? <\/p>\n        <\/div>","response":{},"study_instruction":"self","letter_case":"upper","likeable":"low","target_word":"CRITICAL","encoding_trial_type":"question","phase":"main_study","encoding_recall":"no_recall","iksi":{}},{"trial_type":"html-button-response","trial_index":101,"time_elapsed":616032,"internal_node_id":"0.0-7.0-1.22","ID":"1","block_type":"mixed","rt":[1547],"stimulus":"<div>\n        <p> Would you use the following word to describe yourself? <\/p>\n        <p> CRITICAL <\/p>\n        <\/div>","response":[1],"study_instruction":"self","letter_case":"upper","likeable":"low","target_word":"CRITICAL","encoding_trial_type":"study_word","phase":"main_study","encoding_recall":"no_recall","iksi":{}},{"trial_type":"html-typing-response","trial_index":102,"time_elapsed":617033,"internal_node_id":"0.0-7.0-2.22","ID":"1","block_type":"mixed","rt":{},"response":{},"study_instruction":"self","letter_case":"upper","likeable":"low","target_word":"CRITICAL","phase":"study_recall","encoding_recall":"no_recall","iksi":{}},{"trial_type":"html-keyboard-response","trial_index":103,"time_elapsed":617135,"internal_node_id":"0.0-7.0-3.22","ID":"1","block_type":"mixed","rt":{},"stimulus":"","response":{},"phase":"main_study","iksi":{}},{"trial_type":"html-keyboard-response","trial_index":104,"time_elapsed":620137,"internal_node_id":"0.0-7.0-0.23","ID":"1","block_type":"mixed","rt":{},"stimulus":"<div>\n        <p> Would you use the following word to describe yourself? <\/p>\n        <\/div>","response":{},"study_instruction":"self","letter_case":"upper","likeable":"high","target_word":"INQUISITIVE","encoding_trial_type":"question","phase":"main_study","encoding_recall":"recall","iksi":{}},{"trial_type":"html-button-response","trial_index":105,"time_elapsed":622001,"internal_node_id":"0.0-7.0-1.23","ID":"1","block_type":"mixed","rt":[1864],"stimulus":"<div>\n        <p> Would you use the following word to describe yourself? <\/p>\n        <p> INQUISITIVE <\/p>\n        <\/div>","response":[0],"study_instruction":"self","letter_case":"upper","likeable":"high","target_word":"INQUISITIVE","encoding_trial_type":"study_word","phase":"main_study","encoding_recall":"recall","iksi":{}},{"trial_type":"html-typing-response","trial_index":106,"time_elapsed":632938,"internal_node_id":"0.0-7.0-2.23","ID":"1","block_type":"mixed","rt":[3164,3515,4306,4553,5532,5658,6507,6628,6773,6935,7167,7453,7954],"stimulus":"<div>\n      <h2> Recall the last word <\/h2>\n      <p> Type the last word that you judged<\/p>\n      <\/div>","response":["i","n","q","u","i","s","i","t","i","v","e"," ","backspace"],"study_instruction":"self","letter_case":"upper","likeable":"high","target_word":"INQUISITIVE","phase":"study_recall","encoding_recall":"recall","iksi":[3164,351,791,247,979,126,849,121,145,162,232,286,501],"paragraph":"inquisitive"},{"trial_type":"html-keyboard-response","trial_index":107,"time_elapsed":633039,"internal_node_id":"0.0-7.0-3.23","ID":"1","block_type":"mixed","rt":{},"stimulus":"","response":{},"phase":"main_study","iksi":{}},{"trial_type":"html-keyboard-response","trial_index":108,"time_elapsed":636042,"internal_node_id":"0.0-7.0-0.24","ID":"1","block_type":"mixed","rt":{},"stimulus":"<div>\n        <p> Is the following word written in upper case? <\/p>\n        <\/div>","response":{},"study_instruction":"case","letter_case":"lower","likeable":"high","target_word":"responsible","encoding_trial_type":"question","phase":"main_study","encoding_recall":"recall","iksi":{}},{"trial_type":"html-button-response","trial_index":109,"time_elapsed":637755,"internal_node_id":"0.0-7.0-1.24","ID":"1","block_type":"mixed","rt":[1712],"stimulus":"<div>\n        <p> Is the following word written in upper case? <\/p>\n        <p> responsible <\/p>\n        <\/div>","response":[1],"study_instruction":"case","letter_case":"lower","likeable":"high","target_word":"responsible","encoding_trial_type":"study_word","phase":"main_study","encoding_recall":"recall","iksi":{}},{"trial_type":"html-typing-response","trial_index":110,"time_elapsed":645356,"internal_node_id":"0.0-7.0-2.24","ID":"1","block_type":"mixed","rt":[2079,2636,3016,3120,3203,3496,3851,4069,4160,4623,4958,5169,5281],"stimulus":"<div>\n      <h2> Recall the last word <\/h2>\n      <p> Type the last word that you judged<\/p>\n      <\/div>","response":["r","s","backspace","e","s","p","o","n","s","i","b","l","e"],"study_instruction":"case","letter_case":"lower","likeable":"high","target_word":"responsible","phase":"study_recall","encoding_recall":"recall","iksi":[2079,557,380,104,83,293,355,218,91,463,335,211,112],"paragraph":"responsible"},{"trial_type":"html-keyboard-response","trial_index":111,"time_elapsed":645465,"internal_node_id":"0.0-7.0-3.24","ID":"1","block_type":"mixed","rt":{},"stimulus":"","response":{},"phase":"main_study","iksi":{}},{"trial_type":"html-keyboard-response","trial_index":112,"time_elapsed":648466,"internal_node_id":"0.0-7.0-0.25","ID":"1","block_type":"mixed","rt":{},"stimulus":"<div>\n        <p> Does the following word have a positive meaning? <\/p>\n        <\/div>","response":{},"study_instruction":"semantic","letter_case":"lower","likeable":"low","target_word":"worrier","encoding_trial_type":"question","phase":"main_study","encoding_recall":"no_recall","iksi":{}},{"trial_type":"html-button-response","trial_index":113,"time_elapsed":650365,"internal_node_id":"0.0-7.0-1.25","ID":"1","block_type":"mixed","rt":[1898],"stimulus":"<div>\n        <p> Does the following word have a positive meaning? <\/p>\n        <p> worrier <\/p>\n        <\/div>","response":[1],"study_instruction":"semantic","letter_case":"lower","likeable":"low","target_word":"worrier","encoding_trial_type":"study_word","phase":"main_study","encoding_recall":"no_recall","iksi":{}},{"trial_type":"html-typing-response","trial_index":114,"time_elapsed":651365,"internal_node_id":"0.0-7.0-2.25","ID":"1","block_type":"mixed","rt":{},"response":{},"study_instruction":"semantic","letter_case":"lower","likeable":"low","target_word":"worrier","phase":"study_recall","encoding_recall":"no_recall","iksi":{}},{"trial_type":"html-keyboard-response","trial_index":115,"time_elapsed":651467,"internal_node_id":"0.0-7.0-3.25","ID":"1","block_type":"mixed","rt":{},"stimulus":"","response":{},"phase":"main_study","iksi":{}},{"trial_type":"html-keyboard-response","trial_index":116,"time_elapsed":654466,"internal_node_id":"0.0-7.0-0.26","ID":"1","block_type":"mixed","rt":{},"stimulus":"<div>\n        <p> Is the following word written in upper case? <\/p>\n        <\/div>","response":{},"study_instruction":"case","letter_case":"upper","likeable":"high","target_word":"RESOURCEFUL","encoding_trial_type":"question","phase":"main_study","encoding_recall":"recall","iksi":{}},{"trial_type":"html-button-response","trial_index":117,"time_elapsed":657397,"internal_node_id":"0.0-7.0-1.26","ID":"1","block_type":"mixed","rt":[2930],"stimulus":"<div>\n        <p> Is the following word written in upper case? <\/p>\n        <p> RESOURCEFUL <\/p>\n        <\/div>","response":[0],"study_instruction":"case","letter_case":"upper","likeable":"high","target_word":"RESOURCEFUL","encoding_trial_type":"study_word","phase":"main_study","encoding_recall":"recall","iksi":{}},{"trial_type":"html-typing-response","trial_index":118,"time_elapsed":665910,"internal_node_id":"0.0-7.0-2.26","ID":"1","block_type":"mixed","rt":[2556,2756,3075,3563,3869,4016,4319,4676,4747,5399,5527,5768,6054],"stimulus":"<div>\n      <h2> Recall the last word <\/h2>\n      <p> Type the last word that you judged<\/p>\n      <\/div>","response":["r","e","s","o","u","r","c","e","s","backspace","f","u","l"],"study_instruction":"case","letter_case":"upper","likeable":"high","target_word":"RESOURCEFUL","phase":"study_recall","encoding_recall":"recall","iksi":[2556,200,319,488,306,147,303,357,71,652,128,241,286],"paragraph":"resourceful"},{"trial_type":"html-keyboard-response","trial_index":119,"time_elapsed":666011,"internal_node_id":"0.0-7.0-3.26","ID":"1","block_type":"mixed","rt":{},"stimulus":"","response":{},"phase":"main_study","iksi":{}},{"trial_type":"html-keyboard-response","trial_index":120,"time_elapsed":669011,"internal_node_id":"0.0-7.0-0.27","ID":"1","block_type":"mixed","rt":{},"stimulus":"<div>\n        <p> Does the following word have a positive meaning? <\/p>\n        <\/div>","response":{},"study_instruction":"semantic","letter_case":"lower","likeable":"high","target_word":"motivator","encoding_trial_type":"question","phase":"main_study","encoding_recall":"no_recall","iksi":{}},{"trial_type":"html-button-response","trial_index":121,"time_elapsed":670598,"internal_node_id":"0.0-7.0-1.27","ID":"1","block_type":"mixed","rt":[1586],"stimulus":"<div>\n        <p> Does the following word have a positive meaning? <\/p>\n        <p> motivator <\/p>\n        <\/div>","response":[0],"study_instruction":"semantic","letter_case":"lower","likeable":"high","target_word":"motivator","encoding_trial_type":"study_word","phase":"main_study","encoding_recall":"no_recall","iksi":{}},{"trial_type":"html-typing-response","trial_index":122,"time_elapsed":671599,"internal_node_id":"0.0-7.0-2.27","ID":"1","block_type":"mixed","rt":{},"response":{},"study_instruction":"semantic","letter_case":"lower","likeable":"high","target_word":"motivator","phase":"study_recall","encoding_recall":"no_recall","iksi":{}},{"trial_type":"html-keyboard-response","trial_index":123,"time_elapsed":671700,"internal_node_id":"0.0-7.0-3.27","ID":"1","block_type":"mixed","rt":{},"stimulus":"","response":{},"phase":"main_study","iksi":{}},{"trial_type":"html-keyboard-response","trial_index":124,"time_elapsed":674701,"internal_node_id":"0.0-7.0-0.28","ID":"1","block_type":"mixed","rt":{},"stimulus":"<div>\n        <p> Is the following word written in upper case? <\/p>\n        <\/div>","response":{},"study_instruction":"case","letter_case":"upper","likeable":"low","target_word":"UNREASONABLE","encoding_trial_type":"question","phase":"main_study","encoding_recall":"no_recall","iksi":{}},{"trial_type":"html-button-response","trial_index":125,"time_elapsed":676471,"internal_node_id":"0.0-7.0-1.28","ID":"1","block_type":"mixed","rt":[1770],"stimulus":"<div>\n        <p> Is the following word written in upper case? <\/p>\n        <p> UNREASONABLE <\/p>\n        <\/div>","response":[0],"study_instruction":"case","letter_case":"upper","likeable":"low","target_word":"UNREASONABLE","encoding_trial_type":"study_word","phase":"main_study","encoding_recall":"no_recall","iksi":{}},{"trial_type":"html-typing-response","trial_index":126,"time_elapsed":677471,"internal_node_id":"0.0-7.0-2.28","ID":"1","block_type":"mixed","rt":{},"response":{},"study_instruction":"case","letter_case":"upper","likeable":"low","target_word":"UNREASONABLE","phase":"study_recall","encoding_recall":"no_recall","iksi":{}},{"trial_type":"html-keyboard-response","trial_index":127,"time_elapsed":677583,"internal_node_id":"0.0-7.0-3.28","ID":"1","block_type":"mixed","rt":{},"stimulus":"","response":{},"phase":"main_study","iksi":{}},{"trial_type":"html-keyboard-response","trial_index":128,"time_elapsed":680585,"internal_node_id":"0.0-7.0-0.29","ID":"1","block_type":"mixed","rt":{},"stimulus":"<div>\n        <p> Is the following word written in upper case? <\/p>\n        <\/div>","response":{},"study_instruction":"case","letter_case":"lower","likeable":"low","target_word":"uncivil","encoding_trial_type":"question","phase":"main_study","encoding_recall":"recall","iksi":{}},{"trial_type":"html-button-response","trial_index":129,"time_elapsed":682016,"internal_node_id":"0.0-7.0-1.29","ID":"1","block_type":"mixed","rt":[1430],"stimulus":"<div>\n        <p> Is the following word written in upper case? <\/p>\n        <p> uncivil <\/p>\n        <\/div>","response":[1],"study_instruction":"case","letter_case":"lower","likeable":"low","target_word":"uncivil","encoding_trial_type":"study_word","phase":"main_study","encoding_recall":"recall","iksi":{}},{"trial_type":"html-typing-response","trial_index":130,"time_elapsed":687928,"internal_node_id":"0.0-7.0-2.29","ID":"1","block_type":"mixed","rt":[1713,2002,2646,2860,3032,3172,3586],"stimulus":"<div>\n      <h2> Recall the last word <\/h2>\n      <p> Type the last word that you judged<\/p>\n      <\/div>","response":["u","n","c","i","v","i","l"],"study_instruction":"case","letter_case":"lower","likeable":"low","target_word":"uncivil","phase":"study_recall","encoding_recall":"recall","iksi":[1713,289,644,214,172,140,414],"paragraph":"uncivil"},{"trial_type":"html-keyboard-response","trial_index":131,"time_elapsed":688029,"internal_node_id":"0.0-7.0-3.29","ID":"1","block_type":"mixed","rt":{},"stimulus":"","response":{},"phase":"main_study","iksi":{}},{"trial_type":"html-keyboard-response","trial_index":132,"time_elapsed":691029,"internal_node_id":"0.0-7.0-0.30","ID":"1","block_type":"mixed","rt":{},"stimulus":"<div>\n        <p> Is the following word written in upper case? <\/p>\n        <\/div>","response":{},"study_instruction":"case","letter_case":"upper","likeable":"high","target_word":"BUSINESSLIKE","encoding_trial_type":"question","phase":"main_study","encoding_recall":"recall","iksi":{}},{"trial_type":"html-button-response","trial_index":133,"time_elapsed":692737,"internal_node_id":"0.0-7.0-1.30","ID":"1","block_type":"mixed","rt":[1707],"stimulus":"<div>\n        <p> Is the following word written in upper case? <\/p>\n        <p> BUSINESSLIKE <\/p>\n        <\/div>","response":[0],"study_instruction":"case","letter_case":"upper","likeable":"high","target_word":"BUSINESSLIKE","encoding_trial_type":"study_word","phase":"main_study","encoding_recall":"recall","iksi":{}},{"trial_type":"html-typing-response","trial_index":134,"time_elapsed":699130,"internal_node_id":"0.0-7.0-2.30","ID":"1","block_type":"mixed","rt":[1798,2101,2328,2588,2820,2965,3125,3385,3647,3884,4080,4170],"stimulus":"<div>\n      <h2> Recall the last word <\/h2>\n      <p> Type the last word that you judged<\/p>\n      <\/div>","response":["b","u","s","i","n","e","s","s","l","i","k","e"],"study_instruction":"case","letter_case":"upper","likeable":"high","target_word":"BUSINESSLIKE","phase":"study_recall","encoding_recall":"recall","iksi":[1798,303,227,260,232,145,160,260,262,237,196,90],"paragraph":"businesslike"},{"trial_type":"html-keyboard-response","trial_index":135,"time_elapsed":699230,"internal_node_id":"0.0-7.0-3.30","ID":"1","block_type":"mixed","rt":{},"stimulus":"","response":{},"phase":"main_study","iksi":{}},{"trial_type":"html-keyboard-response","trial_index":136,"time_elapsed":702233,"internal_node_id":"0.0-7.0-0.31","ID":"1","block_type":"mixed","rt":{},"stimulus":"<div>\n        <p> Would you use the following word to describe yourself? <\/p>\n        <\/div>","response":{},"study_instruction":"self","letter_case":"lower","likeable":"low","target_word":"panhandler","encoding_trial_type":"question","phase":"main_study","encoding_recall":"no_recall","iksi":{}},{"trial_type":"html-button-response","trial_index":137,"time_elapsed":703626,"internal_node_id":"0.0-7.0-1.31","ID":"1","block_type":"mixed","rt":[1393],"stimulus":"<div>\n        <p> Would you use the following word to describe yourself? <\/p>\n        <p> panhandler <\/p>\n        <\/div>","response":[1],"study_instruction":"self","letter_case":"lower","likeable":"low","target_word":"panhandler","encoding_trial_type":"study_word","phase":"main_study","encoding_recall":"no_recall","iksi":{}},{"trial_type":"html-typing-response","trial_index":138,"time_elapsed":704627,"internal_node_id":"0.0-7.0-2.31","ID":"1","block_type":"mixed","rt":{},"response":{},"study_instruction":"self","letter_case":"lower","likeable":"low","target_word":"panhandler","phase":"study_recall","encoding_recall":"no_recall","iksi":{}},{"trial_type":"html-keyboard-response","trial_index":139,"time_elapsed":704728,"internal_node_id":"0.0-7.0-3.31","ID":"1","block_type":"mixed","rt":{},"stimulus":"","response":{},"phase":"main_study","iksi":{}},{"trial_type":"html-keyboard-response","trial_index":140,"time_elapsed":707728,"internal_node_id":"0.0-7.0-0.32","ID":"1","block_type":"mixed","rt":{},"stimulus":"<div>\n        <p> Is the following word written in upper case? <\/p>\n        <\/div>","response":{},"study_instruction":"case","letter_case":"lower","likeable":"high","target_word":"casual","encoding_trial_type":"question","phase":"main_study","encoding_recall":"no_recall","iksi":{}},{"trial_type":"html-button-response","trial_index":141,"time_elapsed":709411,"internal_node_id":"0.0-7.0-1.32","ID":"1","block_type":"mixed","rt":[1682],"stimulus":"<div>\n        <p> Is the following word written in upper case? <\/p>\n        <p> casual <\/p>\n        <\/div>","response":[1],"study_instruction":"case","letter_case":"lower","likeable":"high","target_word":"casual","encoding_trial_type":"study_word","phase":"main_study","encoding_recall":"no_recall","iksi":{}},{"trial_type":"html-typing-response","trial_index":142,"time_elapsed":710411,"internal_node_id":"0.0-7.0-2.32","ID":"1","block_type":"mixed","rt":{},"response":{},"study_instruction":"case","letter_case":"lower","likeable":"high","target_word":"casual","phase":"study_recall","encoding_recall":"no_recall","iksi":{}},{"trial_type":"html-keyboard-response","trial_index":143,"time_elapsed":710512,"internal_node_id":"0.0-7.0-3.32","ID":"1","block_type":"mixed","rt":{},"stimulus":"","response":{},"phase":"main_study","iksi":{}},{"trial_type":"html-keyboard-response","trial_index":144,"time_elapsed":713513,"internal_node_id":"0.0-7.0-0.33","ID":"1","block_type":"mixed","rt":{},"stimulus":"<div>\n        <p> Does the following word have a positive meaning? <\/p>\n        <\/div>","response":{},"study_instruction":"semantic","letter_case":"upper","likeable":"low","target_word":"UPTIGHT","encoding_trial_type":"question","phase":"main_study","encoding_recall":"recall","iksi":{}},{"trial_type":"html-button-response","trial_index":145,"time_elapsed":715692,"internal_node_id":"0.0-7.0-1.33","ID":"1","block_type":"mixed","rt":[2179],"stimulus":"<div>\n        <p> Does the following word have a positive meaning? <\/p>\n        <p> UPTIGHT <\/p>\n        <\/div>","response":[1],"study_instruction":"semantic","letter_case":"upper","likeable":"low","target_word":"UPTIGHT","encoding_trial_type":"study_word","phase":"main_study","encoding_recall":"recall","iksi":{}},{"trial_type":"html-typing-response","trial_index":146,"time_elapsed":720549,"internal_node_id":"0.0-7.0-2.33","ID":"1","block_type":"mixed","rt":[1655,1906,2021,2167,2331,2479,2608],"stimulus":"<div>\n      <h2> Recall the last word <\/h2>\n      <p> Type the last word that you judged<\/p>\n      <\/div>","response":["u","p","t","i","g","h","t"],"study_instruction":"semantic","letter_case":"upper","likeable":"low","target_word":"UPTIGHT","phase":"study_recall","encoding_recall":"recall","iksi":[1655,251,115,146,164,148,129],"paragraph":"uptight"},{"trial_type":"html-keyboard-response","trial_index":147,"time_elapsed":720650,"internal_node_id":"0.0-7.0-3.33","ID":"1","block_type":"mixed","rt":{},"stimulus":"","response":{},"phase":"main_study","iksi":{}},{"trial_type":"html-keyboard-response","trial_index":148,"time_elapsed":723651,"internal_node_id":"0.0-7.0-0.34","ID":"1","block_type":"mixed","rt":{},"stimulus":"<div>\n        <p> Is the following word written in upper case? <\/p>\n        <\/div>","response":{},"study_instruction":"case","letter_case":"lower","likeable":"high","target_word":"caring","encoding_trial_type":"question","phase":"main_study","encoding_recall":"no_recall","iksi":{}},{"trial_type":"html-button-response","trial_index":149,"time_elapsed":724725,"internal_node_id":"0.0-7.0-1.34","ID":"1","block_type":"mixed","rt":[1073],"stimulus":"<div>\n        <p> Is the following word written in upper case? <\/p>\n        <p> caring <\/p>\n        <\/div>","response":[1],"study_instruction":"case","letter_case":"lower","likeable":"high","target_word":"caring","encoding_trial_type":"study_word","phase":"main_study","encoding_recall":"no_recall","iksi":{}},{"trial_type":"html-typing-response","trial_index":150,"time_elapsed":725739,"internal_node_id":"0.0-7.0-2.34","ID":"1","block_type":"mixed","rt":{},"response":{},"study_instruction":"case","letter_case":"lower","likeable":"high","target_word":"caring","phase":"study_recall","encoding_recall":"no_recall","iksi":{}},{"trial_type":"html-keyboard-response","trial_index":151,"time_elapsed":725839,"internal_node_id":"0.0-7.0-3.34","ID":"1","block_type":"mixed","rt":{},"stimulus":"","response":{},"phase":"main_study","iksi":{}},{"trial_type":"html-keyboard-response","trial_index":152,"time_elapsed":728846,"internal_node_id":"0.0-7.0-0.35","ID":"1","block_type":"mixed","rt":{},"stimulus":"<div>\n        <p> Would you use the following word to describe yourself? <\/p>\n        <\/div>","response":{},"study_instruction":"self","letter_case":"lower","likeable":"high","target_word":"friendly","encoding_trial_type":"question","phase":"main_study","encoding_recall":"recall","iksi":{}},{"trial_type":"html-button-response","trial_index":153,"time_elapsed":730182,"internal_node_id":"0.0-7.0-1.35","ID":"1","block_type":"mixed","rt":[1335],"stimulus":"<div>\n        <p> Would you use the following word to describe yourself? <\/p>\n        <p> friendly <\/p>\n        <\/div>","response":[0],"study_instruction":"self","letter_case":"lower","likeable":"high","target_word":"friendly","encoding_trial_type":"study_word","phase":"main_study","encoding_recall":"recall","iksi":{}},{"trial_type":"html-typing-response","trial_index":154,"time_elapsed":735462,"internal_node_id":"0.0-7.0-2.35","ID":"1","block_type":"mixed","rt":[1527,1783,1975,2150,2274,2410,2530,2863],"stimulus":"<div>\n      <h2> Recall the last word <\/h2>\n      <p> Type the last word that you judged<\/p>\n      <\/div>","response":["f","r","i","e","n","d","l","y"],"study_instruction":"self","letter_case":"lower","likeable":"high","target_word":"friendly","phase":"study_recall","encoding_recall":"recall","iksi":[1527,256,192,175,124,136,120,333],"paragraph":"friendly"},{"trial_type":"html-keyboard-response","trial_index":155,"time_elapsed":735564,"internal_node_id":"0.0-7.0-3.35","ID":"1","block_type":"mixed","rt":{},"stimulus":"","response":{},"phase":"main_study","iksi":{}},{"trial_type":"html-keyboard-response","trial_index":156,"time_elapsed":738564,"internal_node_id":"0.0-8.0-0.0","ID":"1","block_type":"mixed","rt":{},"stimulus":"<div>\n        <p> Is the following word written in upper case? <\/p>\n        <\/div>","response":{},"study_instruction":"case","letter_case":"lower","likeable":"low","target_word":"unappealing","encoding_trial_type":"question","phase":"filler_end","encoding_recall":"no_recall","iksi":{}},{"trial_type":"html-button-response","trial_index":157,"time_elapsed":740839,"internal_node_id":"0.0-8.0-1.0","ID":"1","block_type":"mixed","rt":[2275],"stimulus":"<div>\n        <p> Is the following word written in upper case? <\/p>\n        <p> unappealing <\/p>\n        <\/div>","response":[1],"study_instruction":"case","letter_case":"lower","likeable":"low","target_word":"unappealing","encoding_trial_type":"study_word","phase":"filler_end","encoding_recall":"no_recall","iksi":{}},{"trial_type":"html-keyboard-response","trial_index":158,"time_elapsed":744843,"internal_node_id":"0.0-8.0-0.1","ID":"1","block_type":"mixed","rt":{},"stimulus":"<div>\n        <p> Would you use the following word to describe yourself? <\/p>\n        <\/div>","response":{},"study_instruction":"self","letter_case":"upper","likeable":"low","target_word":"NEGLIGENT","encoding_trial_type":"question","phase":"filler_end","encoding_recall":"no_recall","iksi":{}},{"trial_type":"html-button-response","trial_index":159,"time_elapsed":746552,"internal_node_id":"0.0-8.0-1.1","ID":"1","block_type":"mixed","rt":[1708],"stimulus":"<div>\n        <p> Would you use the following word to describe yourself? <\/p>\n        <p> NEGLIGENT <\/p>\n        <\/div>","response":[1],"study_instruction":"self","letter_case":"upper","likeable":"low","target_word":"NEGLIGENT","encoding_trial_type":"study_word","phase":"filler_end","encoding_recall":"no_recall","iksi":{}},{"trial_type":"html-keyboard-response","trial_index":160,"time_elapsed":750553,"internal_node_id":"0.0-8.0-0.2","ID":"1","block_type":"mixed","rt":{},"stimulus":"<div>\n        <p> Does the following word have a positive meaning? <\/p>\n        <\/div>","response":{},"study_instruction":"semantic","letter_case":"upper","likeable":"high","target_word":"PROGRESSIVE","encoding_trial_type":"question","phase":"filler_end","encoding_recall":"no_recall","iksi":{}},{"trial_type":"html-button-response","trial_index":161,"time_elapsed":754033,"internal_node_id":"0.0-8.0-1.2","ID":"1","block_type":"mixed","rt":[3479],"stimulus":"<div>\n        <p> Does the following word have a positive meaning? <\/p>\n        <p> PROGRESSIVE <\/p>\n        <\/div>","response":[0],"study_instruction":"semantic","letter_case":"upper","likeable":"high","target_word":"PROGRESSIVE","encoding_trial_type":"study_word","phase":"filler_end","encoding_recall":"no_recall","iksi":{}},{"trial_type":"html-keyboard-response","trial_index":162,"time_elapsed":767497,"internal_node_id":"0.0-9.0","ID":"1","block_type":"mixed","rt":[12453],"stimulus":"\n        <h2> Phase II instructions <\/h2>\n        <p> In this phase you will be given a recall memory test <\/p>\n        <p> You made judgments about 44 words <\/p>\n        <p> Your task is now to recall as many words as you can by typing out each word. <\/p>\n        <p> Press any key to begin <\/p>\n      ","response":[" "],"phase":"recall_1_instruct","iksi":{}},{"trial_type":"html-typing-response","trial_index":163,"time_elapsed":916653,"internal_node_id":"0.0-10.0","ID":"1","block_type":"mixed","rt":[3016,3214,3332,3483,3677,3845,4099,10067,10318,10707,10917,16769,21355,21603,21965,22311,22465,22631,22850,22921,23319,26346,27121,27605,28191,28414,28565,28669,28959,29174,29336,29888,31227,31861,32174,32785,32955,33192,33689,33792,33929,34036,34214,34323,34730,35010,35148,35337,35497,35647,35810,36002,36166,36496,38326,38591,38728,38878,38955,39182,39601,39806,40007,40177,40330,40453,40595,40881,41569,42189,42360,42502,42789,43021,43177,43303,43641,48291,48493,48636,48802,49017,49124,49310,58617,58726,58877,59020,59269,59539,59761,59941,60232,60434,60625,60669,60830,61046,61218,61375,61571,61955],"stimulus":"<div>\n      <h2> Recall each word <\/h2>\n      <p> You were shown 44 words, try to recall as many words as possible<\/p>\n      <p> Type each word separated by a space. Your responses will be shown in the box below. <\/p>\n      <\/div>","response":["u","n","c","i","v","i","l","u","n","backspace","backspace"," ","u","n","c","a","r","i","n","g"," ","n","e","g","l","i","c","i","e","n","t"," ","p","r","o","f","i","i","backspace","c","i","e","n","t"," ","a","r","t","i","s","t","i","c"," ","f","r","i","d","n","e","backspace","backspace","backspace","e","n","d","l","y"," ","m","o","r","o","n","i","c"," ","c","a","r","i","n","g"," ","p","r","o","g","r","s","s","i","backspace","backspace","backspace","e","s","s","i","v","e"," "],"phase":"recall_1","iksi":[3016,198,118,151,194,168,254,5968,251,389,210,5852,4586,248,362,346,154,166,219,71,398,3027,775,484,586,223,151,104,290,215,162,552,1339,634,313,611,170,237,497,103,137,107,178,109,407,280,138,189,160,150,163,192,164,330,1830,265,137,150,77,227,419,205,201,170,153,123,142,286,688,620,171,142,287,232,156,126,338,4650,202,143,166,215,107,186,9307,109,151,143,249,270,222,180,291,202,191,44,161,216,172,157,196,384],"paragraph":"uncivil uncaring neglicient proficient artistic friendly moronic caring progressive "},{"trial_type":"html-typing-response","trial_index":164,"time_elapsed":982261,"internal_node_id":"0.0-11.0","ID":"1","block_type":"mixed","rt":[],"stimulus":"<div>\n      <h2> Can you remember any more words? <\/h2>\n      <p> Please spend a minute or two to try and recall any additional words that you can<\/p>\n      <\/div>","response":[],"phase":"recall_2","iksi":[null],"paragraph":""},{"trial_type":"survey-text","trial_index":165,"time_elapsed":997871,"internal_node_id":"0.0-12.0","ID":"1","block_type":"mixed","rt":[15607],"response":{"memory_aid":["No"],"attention":["Yes"],"general":["No"]},"iksi":{}},{"trial_type":"external-html","trial_index":166,"time_elapsed":1001247,"internal_node_id":"0.0-13.0","ID":"1","block_type":"mixed","rt":[1712],"response":{},"url":"consent/debrief_mturk.html","iksi":{}},{"width":1920,"height":961,"webaudio":true,"browser":"chrome","browser_version":"113.0.0","mobile":false,"os":"Windows 10","fullscreen":true,"vsync_rate":60.96,"webcam":true,"microphone":true,"trial_type":"browser-check","trial_index":0,"time_elapsed":3646,"internal_node_id":"0.0-0.0","ID":"2","block_type":"mixed","rt":{},"response":{},"iksi":{}},{"trial_type":"html-button-response","trial_index":1,"time_elapsed":8264,"internal_node_id":"0.0-1.0","ID":"2","block_type":"mixed","rt":[4616],"stimulus":"\n      <img src = \"consent/imgs/ccp.png\" width=\"25%\">\n      <p>Welcome, this experiment requires your full attention for approximately 15 minutes.<\/p>\n<p><b>Important: This study can only be completed once. Reloading or pressing the back button will stop the study.<\/b><\/p>\n<p><b>Please complete this study on a desktop or laptop using Chrome or Firefox.<\/b><\/p>\n<p>Continue to consent form and instructions<\/p>\n      ","response":[0],"iksi":{}},{"trial_type":"external-html","trial_index":2,"time_elapsed":12007,"internal_node_id":"0.0-2.0","ID":"2","block_type":"mixed","rt":[3176],"response":{},"url":"consent/consent.html","iksi":{}},{"trial_type":"survey-html-form","trial_index":3,"time_elapsed":23612,"internal_node_id":"0.0-3.0","ID":"2","block_type":"mixed","rt":[11603],"response":{"age":["32"],"sex":["female"],"hand":["Right"],"vision":["Normal"],"english":["First"]},"iksi":{}},{"trial_type":"html-keyboard-response","trial_index":4,"time_elapsed":29446,"internal_node_id":"0.0-4.0","ID":"2","block_type":"mixed","rt":[5832],"stimulus":"\n        <h2> Phase I instructions <\/h2>\n        <p>In this phase you will make judgments about words that describe personality characteristics or traits <\/p>\n        <p> Sometimes you will be asked to remember words that were just shown to you <\/p>\n        <p> There are 44 words to judge <\/p>\n        <p> After this phase you will be given a memory test for all of the words you saw <\/p>\n        <p>Press any key.<\/p>\n      ","response":[" "],"iksi":{}},{"trial_type":"html-keyboard-response","trial_index":5,"time_elapsed":38516,"internal_node_id":"0.0-5.0","ID":"2","block_type":"mixed","rt":[8059],"stimulus":"\n        <h2> Important <\/h2>\n        <p> There is a memory test after this phase <\/p>\n        <p> Please do not use external aids to help your performance <\/p>\n        <p> For example, please do not write down the words or take screenshots <\/p>\n        <p> The experiment is aimed at measuring unaided memory processes. <\/p>\n        <p> Press any key to begin.<\/p>\n      ","response":[" "],"iksi":{}},{"trial_type":"html-keyboard-response","trial_index":6,"time_elapsed":42521,"internal_node_id":"0.0-6.0-0.0","ID":"2","block_type":"mixed","rt":{},"stimulus":"<div>\n        <p> Does the following word have a positive meaning? <\/p>\n        <\/div>","response":{},"study_instruction":"semantic","letter_case":"upper","likeable":"low","target_word":"UNOBLIGING","encoding_trial_type":"question","phase":"filler_start","encoding_recall":"no_recall","iksi":{}},{"trial_type":"html-button-response","trial_index":7,"time_elapsed":49723,"internal_node_id":"0.0-6.0-1.0","ID":"2","block_type":"mixed","rt":[7201],"stimulus":"<div>\n        <p> Does the following word have a positive meaning? <\/p>\n        <p> UNOBLIGING <\/p>\n        <\/div>","response":[1],"study_instruction":"semantic","letter_case":"upper","likeable":"low","target_word":"UNOBLIGING","encoding_trial_type":"study_word","phase":"filler_start","encoding_recall":"no_recall","iksi":{}},{"trial_type":"html-keyboard-response","trial_index":8,"time_elapsed":53726,"internal_node_id":"0.0-6.0-0.1","ID":"2","block_type":"mixed","rt":{},"stimulus":"<div>\n        <p> Is the following word written in upper case? <\/p>\n        <\/div>","response":{},"study_instruction":"case","letter_case":"upper","likeable":"high","target_word":"IMAGINATIVE","encoding_trial_type":"question","phase":"filler_start","encoding_recall":"no_recall","iksi":{}},{"trial_type":"html-button-response","trial_index":9,"time_elapsed":55804,"internal_node_id":"0.0-6.0-1.1","ID":"2","block_type":"mixed","rt":[2077],"stimulus":"<div>\n        <p> Is the following word written in upper case? <\/p>\n        <p> IMAGINATIVE <\/p>\n        <\/div>","response":[0],"study_instruction":"case","letter_case":"upper","likeable":"high","target_word":"IMAGINATIVE","encoding_trial_type":"study_word","phase":"filler_start","encoding_recall":"no_recall","iksi":{}},{"trial_type":"html-keyboard-response","trial_index":10,"time_elapsed":59819,"internal_node_id":"0.0-6.0-0.2","ID":"2","block_type":"mixed","rt":{},"stimulus":"<div>\n        <p> Would you use the following word to describe yourself? <\/p>\n        <\/div>","response":{},"study_instruction":"self","letter_case":"lower","likeable":"high","target_word":"genius","encoding_trial_type":"question","phase":"filler_start","encoding_recall":"no_recall","iksi":{}},{"trial_type":"html-button-response","trial_index":11,"time_elapsed":61108,"internal_node_id":"0.0-6.0-1.2","ID":"2","block_type":"mixed","rt":[1288],"stimulus":"<div>\n        <p> Would you use the following word to describe yourself? <\/p>\n        <p> genius <\/p>\n        <\/div>","response":[1],"study_instruction":"self","letter_case":"lower","likeable":"high","target_word":"genius","encoding_trial_type":"study_word","phase":"filler_start","encoding_recall":"no_recall","iksi":{}},{"trial_type":"html-keyboard-response","trial_index":12,"time_elapsed":65131,"internal_node_id":"0.0-7.0-0.0","ID":"2","block_type":"mixed","rt":{},"stimulus":"<div>\n        <p> Would you use the following word to describe yourself? <\/p>\n        <\/div>","response":{},"study_instruction":"self","letter_case":"upper","likeable":"high","target_word":"UNDERSTANDING","encoding_trial_type":"question","phase":"main_study","encoding_recall":"recall","iksi":{}},{"trial_type":"html-button-response","trial_index":13,"time_elapsed":66531,"internal_node_id":"0.0-7.0-1.0","ID":"2","block_type":"mixed","rt":[1400],"stimulus":"<div>\n        <p> Would you use the following word to describe yourself? <\/p>\n        <p> UNDERSTANDING <\/p>\n        <\/div>","response":[0],"study_instruction":"self","letter_case":"upper","likeable":"high","target_word":"UNDERSTANDING","encoding_trial_type":"study_word","phase":"main_study","encoding_recall":"recall","iksi":{}},{"trial_type":"html-typing-response","trial_index":14,"time_elapsed":72976,"internal_node_id":"0.0-7.0-2.0","ID":"2","block_type":"mixed","rt":[1992,2368,2544,2903,2998,3222,3311,3431,3567,3687,3822,3871,3958],"stimulus":"<div>\n      <h2> Recall the last word <\/h2>\n      <p> Type the last word that you judged<\/p>\n      <\/div>","response":["u","n","d","e","r","s","t","a","n","d","i","n","g"],"study_instruction":"self","letter_case":"upper","likeable":"high","target_word":"UNDERSTANDING","phase":"study_recall","encoding_recall":"recall","iksi":[1992,376,176,359,95,224,89,120,136,120,135,49,87],"paragraph":"understanding"},{"trial_type":"html-keyboard-response","trial_index":15,"time_elapsed":73077,"internal_node_id":"0.0-7.0-3.0","ID":"2","block_type":"mixed","rt":{},"stimulus":"","response":{},"phase":"main_study","iksi":{}},{"trial_type":"html-keyboard-response","trial_index":16,"time_elapsed":76080,"internal_node_id":"0.0-7.0-0.1","ID":"2","block_type":"mixed","rt":{},"stimulus":"<div>\n        <p> Does the following word have a positive meaning? <\/p>\n        <\/div>","response":{},"study_instruction":"semantic","letter_case":"lower","likeable":"low","target_word":"materialistic","encoding_trial_type":"question","phase":"main_study","encoding_recall":"no_recall","iksi":{}},{"trial_type":"html-button-response","trial_index":17,"time_elapsed":78024,"internal_node_id":"0.0-7.0-1.1","ID":"2","block_type":"mixed","rt":[1943],"stimulus":"<div>\n        <p> Does the following word have a positive meaning? <\/p>\n        <p> materialistic <\/p>\n        <\/div>","response":[1],"study_instruction":"semantic","letter_case":"lower","likeable":"low","target_word":"materialistic","encoding_trial_type":"study_word","phase":"main_study","encoding_recall":"no_recall","iksi":{}},{"trial_type":"html-typing-response","trial_index":18,"time_elapsed":79035,"internal_node_id":"0.0-7.0-2.1","ID":"2","block_type":"mixed","rt":{},"response":{},"study_instruction":"semantic","letter_case":"lower","likeable":"low","target_word":"materialistic","phase":"study_recall","encoding_recall":"no_recall","iksi":{}},{"trial_type":"html-keyboard-response","trial_index":19,"time_elapsed":79143,"internal_node_id":"0.0-7.0-3.1","ID":"2","block_type":"mixed","rt":{},"stimulus":"","response":{},"phase":"main_study","iksi":{}},{"trial_type":"html-keyboard-response","trial_index":20,"time_elapsed":82156,"internal_node_id":"0.0-7.0-0.2","ID":"2","block_type":"mixed","rt":{},"stimulus":"<div>\n        <p> Does the following word have a positive meaning? <\/p>\n        <\/div>","response":{},"study_instruction":"semantic","letter_case":"lower","likeable":"high","target_word":"attentive","encoding_trial_type":"question","phase":"main_study","encoding_recall":"no_recall","iksi":{}},{"trial_type":"html-button-response","trial_index":21,"time_elapsed":83656,"internal_node_id":"0.0-7.0-1.2","ID":"2","block_type":"mixed","rt":[1498],"stimulus":"<div>\n        <p> Does the following word have a positive meaning? <\/p>\n        <p> attentive <\/p>\n        <\/div>","response":[0],"study_instruction":"semantic","letter_case":"lower","likeable":"high","target_word":"attentive","encoding_trial_type":"study_word","phase":"main_study","encoding_recall":"no_recall","iksi":{}},{"trial_type":"html-typing-response","trial_index":22,"time_elapsed":84656,"internal_node_id":"0.0-7.0-2.2","ID":"2","block_type":"mixed","rt":{},"response":{},"study_instruction":"semantic","letter_case":"lower","likeable":"high","target_word":"attentive","phase":"study_recall","encoding_recall":"no_recall","iksi":{}},{"trial_type":"html-keyboard-response","trial_index":23,"time_elapsed":84757,"internal_node_id":"0.0-7.0-3.2","ID":"2","block_type":"mixed","rt":{},"stimulus":"","response":{},"phase":"main_study","iksi":{}},{"trial_type":"html-keyboard-response","trial_index":24,"time_elapsed":87763,"internal_node_id":"0.0-7.0-0.3","ID":"2","block_type":"mixed","rt":{},"stimulus":"<div>\n        <p> Is the following word written in upper case? <\/p>\n        <\/div>","response":{},"study_instruction":"case","letter_case":"lower","likeable":"high","target_word":"diligent","encoding_trial_type":"question","phase":"main_study","encoding_recall":"recall","iksi":{}},{"trial_type":"html-button-response","trial_index":25,"time_elapsed":89092,"internal_node_id":"0.0-7.0-1.3","ID":"2","block_type":"mixed","rt":[1327],"stimulus":"<div>\n        <p> Is the following word written in upper case? <\/p>\n        <p> diligent <\/p>\n        <\/div>","response":[1],"study_instruction":"case","letter_case":"lower","likeable":"high","target_word":"diligent","encoding_trial_type":"study_word","phase":"main_study","encoding_recall":"recall","iksi":{}},{"trial_type":"html-typing-response","trial_index":26,"time_elapsed":93751,"internal_node_id":"0.0-7.0-2.3","ID":"2","block_type":"mixed","rt":[1374,1485,1711,1902,2078,2239,2359,2461],"stimulus":"<div>\n      <h2> Recall the last word <\/h2>\n      <p> Type the last word that you judged<\/p>\n      <\/div>","response":["d","i","l","i","g","e","n","t"],"study_instruction":"case","letter_case":"lower","likeable":"high","target_word":"diligent","phase":"study_recall","encoding_recall":"recall","iksi":[1374,111,226,191,176,161,120,102],"paragraph":"diligent"},{"trial_type":"html-keyboard-response","trial_index":27,"time_elapsed":93852,"internal_node_id":"0.0-7.0-3.3","ID":"2","block_type":"mixed","rt":{},"stimulus":"","response":{},"phase":"main_study","iksi":{}},{"trial_type":"html-keyboard-response","trial_index":28,"time_elapsed":96856,"internal_node_id":"0.0-7.0-0.4","ID":"2","block_type":"mixed","rt":{},"stimulus":"<div>\n        <p> Would you use the following word to describe yourself? <\/p>\n        <\/div>","response":{},"study_instruction":"self","letter_case":"lower","likeable":"low","target_word":"uncompassionate","encoding_trial_type":"question","phase":"main_study","encoding_recall":"no_recall","iksi":{}},{"trial_type":"html-button-response","trial_index":29,"time_elapsed":98512,"internal_node_id":"0.0-7.0-1.4","ID":"2","block_type":"mixed","rt":[1654],"stimulus":"<div>\n        <p> Would you use the following word to describe yourself? <\/p>\n        <p> uncompassionate <\/p>\n        <\/div>","response":[1],"study_instruction":"self","letter_case":"lower","likeable":"low","target_word":"uncompassionate","encoding_trial_type":"study_word","phase":"main_study","encoding_recall":"no_recall","iksi":{}},{"trial_type":"html-typing-response","trial_index":30,"time_elapsed":99526,"internal_node_id":"0.0-7.0-2.4","ID":"2","block_type":"mixed","rt":{},"response":{},"study_instruction":"self","letter_case":"lower","likeable":"low","target_word":"uncompassionate","phase":"study_recall","encoding_recall":"no_recall","iksi":{}},{"trial_type":"html-keyboard-response","trial_index":31,"time_elapsed":99635,"internal_node_id":"0.0-7.0-3.4","ID":"2","block_type":"mixed","rt":{},"stimulus":"","response":{},"phase":"main_study","iksi":{}},{"trial_type":"html-keyboard-response","trial_index":32,"time_elapsed":102651,"internal_node_id":"0.0-7.0-0.5","ID":"2","block_type":"mixed","rt":{},"stimulus":"<div>\n        <p> Would you use the following word to describe yourself? <\/p>\n        <\/div>","response":{},"study_instruction":"self","letter_case":"upper","likeable":"high","target_word":"MODEST","encoding_trial_type":"question","phase":"main_study","encoding_recall":"no_recall","iksi":{}},{"trial_type":"html-button-response","trial_index":33,"time_elapsed":103763,"internal_node_id":"0.0-7.0-1.5","ID":"2","block_type":"mixed","rt":[1111],"stimulus":"<div>\n        <p> Would you use the following word to describe yourself? <\/p>\n        <p> MODEST <\/p>\n        <\/div>","response":[0],"study_instruction":"self","letter_case":"upper","likeable":"high","target_word":"MODEST","encoding_trial_type":"study_word","phase":"main_study","encoding_recall":"no_recall","iksi":{}},{"trial_type":"html-typing-response","trial_index":34,"time_elapsed":104765,"internal_node_id":"0.0-7.0-2.5","ID":"2","block_type":"mixed","rt":{},"response":{},"study_instruction":"self","letter_case":"upper","likeable":"high","target_word":"MODEST","phase":"study_recall","encoding_recall":"no_recall","iksi":{}},{"trial_type":"html-keyboard-response","trial_index":35,"time_elapsed":104872,"internal_node_id":"0.0-7.0-3.5","ID":"2","block_type":"mixed","rt":{},"stimulus":"","response":{},"phase":"main_study","iksi":{}},{"trial_type":"html-keyboard-response","trial_index":36,"time_elapsed":107876,"internal_node_id":"0.0-7.0-0.6","ID":"2","block_type":"mixed","rt":{},"stimulus":"<div>\n        <p> Is the following word written in upper case? <\/p>\n        <\/div>","response":{},"study_instruction":"case","letter_case":"lower","likeable":"low","target_word":"unsportsmanlike","encoding_trial_type":"question","phase":"main_study","encoding_recall":"recall","iksi":{}},{"trial_type":"html-button-response","trial_index":37,"time_elapsed":109968,"internal_node_id":"0.0-7.0-1.6","ID":"2","block_type":"mixed","rt":[2090],"stimulus":"<div>\n        <p> Is the following word written in upper case? <\/p>\n        <p> unsportsmanlike <\/p>\n        <\/div>","response":[1],"study_instruction":"case","letter_case":"lower","likeable":"low","target_word":"unsportsmanlike","encoding_trial_type":"study_word","phase":"main_study","encoding_recall":"recall","iksi":{}},{"trial_type":"html-typing-response","trial_index":38,"time_elapsed":115947,"internal_node_id":"0.0-7.0-2.6","ID":"2","block_type":"mixed","rt":[1158,1287,1494,1702,1766,1879,2093,2342,2518,2637,2762,2918,3046,3294,3382],"stimulus":"<div>\n      <h2> Recall the last word <\/h2>\n      <p> Type the last word that you judged<\/p>\n      <\/div>","response":["u","n","s","p","o","r","t","s","m","a","n","l","i","k","e"],"study_instruction":"case","letter_case":"lower","likeable":"low","target_word":"unsportsmanlike","phase":"study_recall","encoding_recall":"recall","iksi":[1158,129,207,208,64,113,214,249,176,119,125,156,128,248,88],"paragraph":"unsportsmanlike"},{"trial_type":"html-keyboard-response","trial_index":39,"time_elapsed":116049,"internal_node_id":"0.0-7.0-3.6","ID":"2","block_type":"mixed","rt":{},"stimulus":"","response":{},"phase":"main_study","iksi":{}},{"trial_type":"html-keyboard-response","trial_index":40,"time_elapsed":119050,"internal_node_id":"0.0-7.0-0.7","ID":"2","block_type":"mixed","rt":{},"stimulus":"<div>\n        <p> Is the following word written in upper case? <\/p>\n        <\/div>","response":{},"study_instruction":"case","letter_case":"upper","likeable":"high","target_word":"NORMAL","encoding_trial_type":"question","phase":"main_study","encoding_recall":"no_recall","iksi":{}},{"trial_type":"html-button-response","trial_index":41,"time_elapsed":120047,"internal_node_id":"0.0-7.0-1.7","ID":"2","block_type":"mixed","rt":[997],"stimulus":"<div>\n        <p> Is the following word written in upper case? <\/p>\n        <p> NORMAL <\/p>\n        <\/div>","response":[0],"study_instruction":"case","letter_case":"upper","likeable":"high","target_word":"NORMAL","encoding_trial_type":"study_word","phase":"main_study","encoding_recall":"no_recall","iksi":{}},{"trial_type":"html-typing-response","trial_index":42,"time_elapsed":121049,"internal_node_id":"0.0-7.0-2.7","ID":"2","block_type":"mixed","rt":{},"response":{},"study_instruction":"case","letter_case":"upper","likeable":"high","target_word":"NORMAL","phase":"study_recall","encoding_recall":"no_recall","iksi":{}},{"trial_type":"html-keyboard-response","trial_index":43,"time_elapsed":121150,"internal_node_id":"0.0-7.0-3.7","ID":"2","block_type":"mixed","rt":{},"stimulus":"","response":{},"phase":"main_study","iksi":{}},{"trial_type":"html-keyboard-response","trial_index":44,"time_elapsed":124162,"internal_node_id":"0.0-7.0-0.8","ID":"2","block_type":"mixed","rt":{},"stimulus":"<div>\n        <p> Does the following word have a positive meaning? <\/p>\n        <\/div>","response":{},"study_instruction":"semantic","letter_case":"upper","likeable":"low","target_word":"COMPLAINING","encoding_trial_type":"question","phase":"main_study","encoding_recall":"recall","iksi":{}},{"trial_type":"html-button-response","trial_index":45,"time_elapsed":125963,"internal_node_id":"0.0-7.0-1.8","ID":"2","block_type":"mixed","rt":[1801],"stimulus":"<div>\n        <p> Does the following word have a positive meaning? <\/p>\n        <p> COMPLAINING <\/p>\n        <\/div>","response":[1],"study_instruction":"semantic","letter_case":"upper","likeable":"low","target_word":"COMPLAINING","encoding_trial_type":"study_word","phase":"main_study","encoding_recall":"recall","iksi":{}},{"trial_type":"html-typing-response","trial_index":46,"time_elapsed":131227,"internal_node_id":"0.0-7.0-2.8","ID":"2","block_type":"mixed","rt":[1573,1669,1727,1965,2013,2205,2358,2462,2629,2693,2806],"stimulus":"<div>\n      <h2> Recall the last word <\/h2>\n      <p> Type the last word that you judged<\/p>\n      <\/div>","response":["c","o","m","p","l","a","i","n","i","n","g"],"study_instruction":"semantic","letter_case":"upper","likeable":"low","target_word":"COMPLAINING","phase":"study_recall","encoding_recall":"recall","iksi":[1573,96,58,238,48,192,153,104,167,64,113],"paragraph":"complaining"},{"trial_type":"html-keyboard-response","trial_index":47,"time_elapsed":131328,"internal_node_id":"0.0-7.0-3.8","ID":"2","block_type":"mixed","rt":{},"stimulus":"","response":{},"phase":"main_study","iksi":{}},{"trial_type":"html-keyboard-response","trial_index":48,"time_elapsed":134329,"internal_node_id":"0.0-7.0-0.9","ID":"2","block_type":"mixed","rt":{},"stimulus":"<div>\n        <p> Does the following word have a positive meaning? <\/p>\n        <\/div>","response":{},"study_instruction":"semantic","letter_case":"upper","likeable":"high","target_word":"SYMPATHETIC","encoding_trial_type":"question","phase":"main_study","encoding_recall":"recall","iksi":{}},{"trial_type":"html-button-response","trial_index":49,"time_elapsed":135544,"internal_node_id":"0.0-7.0-1.9","ID":"2","block_type":"mixed","rt":[1215],"stimulus":"<div>\n        <p> Does the following word have a positive meaning? <\/p>\n        <p> SYMPATHETIC <\/p>\n        <\/div>","response":[0],"study_instruction":"semantic","letter_case":"upper","likeable":"high","target_word":"SYMPATHETIC","encoding_trial_type":"study_word","phase":"main_study","encoding_recall":"recall","iksi":{}},{"trial_type":"html-typing-response","trial_index":50,"time_elapsed":141635,"internal_node_id":"0.0-7.0-2.9","ID":"2","block_type":"mixed","rt":[1210,1293,1861,2188,2356,2804,2901,3267,3716,3774,3900],"stimulus":"<div>\n      <h2> Recall the last word <\/h2>\n      <p> Type the last word that you judged<\/p>\n      <\/div>","response":["s","y","m","p","a","t","h","e","t","i","c"],"study_instruction":"semantic","letter_case":"upper","likeable":"high","target_word":"SYMPATHETIC","phase":"study_recall","encoding_recall":"recall","iksi":[1210,83,568,327,168,448,97,366,449,58,126],"paragraph":"sympathetic"},{"trial_type":"html-keyboard-response","trial_index":51,"time_elapsed":141737,"internal_node_id":"0.0-7.0-3.9","ID":"2","block_type":"mixed","rt":{},"stimulus":"","response":{},"phase":"main_study","iksi":{}},{"trial_type":"html-keyboard-response","trial_index":52,"time_elapsed":144737,"internal_node_id":"0.0-7.0-0.10","ID":"2","block_type":"mixed","rt":{},"stimulus":"<div>\n        <p> Would you use the following word to describe yourself? <\/p>\n        <\/div>","response":{},"study_instruction":"self","letter_case":"upper","likeable":"low","target_word":"CRITICAL","encoding_trial_type":"question","phase":"main_study","encoding_recall":"recall","iksi":{}},{"trial_type":"html-button-response","trial_index":53,"time_elapsed":146468,"internal_node_id":"0.0-7.0-1.10","ID":"2","block_type":"mixed","rt":[1729],"stimulus":"<div>\n        <p> Would you use the following word to describe yourself? <\/p>\n        <p> CRITICAL <\/p>\n        <\/div>","response":[0],"study_instruction":"self","letter_case":"upper","likeable":"low","target_word":"CRITICAL","encoding_trial_type":"study_word","phase":"main_study","encoding_recall":"recall","iksi":{}},{"trial_type":"html-typing-response","trial_index":54,"time_elapsed":151107,"internal_node_id":"0.0-7.0-2.10","ID":"2","block_type":"mixed","rt":[1035,1289,1418,1537,1658,2113,2225,2338],"stimulus":"<div>\n      <h2> Recall the last word <\/h2>\n      <p> Type the last word that you judged<\/p>\n      <\/div>","response":["c","r","i","t","i","c","a","l"],"study_instruction":"self","letter_case":"upper","likeable":"low","target_word":"CRITICAL","phase":"study_recall","encoding_recall":"recall","iksi":[1035,254,129,119,121,455,112,113],"paragraph":"critical"},{"trial_type":"html-keyboard-response","trial_index":55,"time_elapsed":151209,"internal_node_id":"0.0-7.0-3.10","ID":"2","block_type":"mixed","rt":{},"stimulus":"","response":{},"phase":"main_study","iksi":{}},{"trial_type":"html-keyboard-response","trial_index":56,"time_elapsed":154224,"internal_node_id":"0.0-7.0-0.11","ID":"2","block_type":"mixed","rt":{},"stimulus":"<div>\n        <p> Is the following word written in upper case? <\/p>\n        <\/div>","response":{},"study_instruction":"case","letter_case":"upper","likeable":"high","target_word":"SENTIMENTAL","encoding_trial_type":"question","phase":"main_study","encoding_recall":"recall","iksi":{}},{"trial_type":"html-button-response","trial_index":57,"time_elapsed":155767,"internal_node_id":"0.0-7.0-1.11","ID":"2","block_type":"mixed","rt":[1542],"stimulus":"<div>\n        <p> Is the following word written in upper case? <\/p>\n        <p> SENTIMENTAL <\/p>\n        <\/div>","response":[0],"study_instruction":"case","letter_case":"upper","likeable":"high","target_word":"SENTIMENTAL","encoding_trial_type":"study_word","phase":"main_study","encoding_recall":"recall","iksi":{}},{"trial_type":"html-typing-response","trial_index":58,"time_elapsed":160680,"internal_node_id":"0.0-7.0-2.11","ID":"2","block_type":"mixed","rt":[1000,1216,1336,1456,1608,1840,1960,2080,2188,2384,2480],"stimulus":"<div>\n      <h2> Recall the last word <\/h2>\n      <p> Type the last word that you judged<\/p>\n      <\/div>","response":["s","e","n","t","i","m","e","n","t","a","l"],"study_instruction":"case","letter_case":"upper","likeable":"high","target_word":"SENTIMENTAL","phase":"study_recall","encoding_recall":"recall","iksi":[1000,216,120,120,152,232,120,120,108,196,96],"paragraph":"sentimental"},{"trial_type":"html-keyboard-response","trial_index":59,"time_elapsed":160783,"internal_node_id":"0.0-7.0-3.11","ID":"2","block_type":"mixed","rt":{},"stimulus":"","response":{},"phase":"main_study","iksi":{}},{"trial_type":"html-keyboard-response","trial_index":60,"time_elapsed":163798,"internal_node_id":"0.0-7.0-0.12","ID":"2","block_type":"mixed","rt":{},"stimulus":"<div>\n        <p> Is the following word written in upper case? <\/p>\n        <\/div>","response":{},"study_instruction":"case","letter_case":"upper","likeable":"low","target_word":"UNACCOMPLISHED","encoding_trial_type":"question","phase":"main_study","encoding_recall":"no_recall","iksi":{}},{"trial_type":"html-button-response","trial_index":61,"time_elapsed":165287,"internal_node_id":"0.0-7.0-1.12","ID":"2","block_type":"mixed","rt":[1489],"stimulus":"<div>\n        <p> Is the following word written in upper case? <\/p>\n        <p> UNACCOMPLISHED <\/p>\n        <\/div>","response":[0],"study_instruction":"case","letter_case":"upper","likeable":"low","target_word":"UNACCOMPLISHED","encoding_trial_type":"study_word","phase":"main_study","encoding_recall":"no_recall","iksi":{}},{"trial_type":"html-typing-response","trial_index":62,"time_elapsed":166297,"internal_node_id":"0.0-7.0-2.12","ID":"2","block_type":"mixed","rt":{},"response":{},"study_instruction":"case","letter_case":"upper","likeable":"low","target_word":"UNACCOMPLISHED","phase":"study_recall","encoding_recall":"no_recall","iksi":{}},{"trial_type":"html-keyboard-response","trial_index":63,"time_elapsed":166406,"internal_node_id":"0.0-7.0-3.12","ID":"2","block_type":"mixed","rt":{},"stimulus":"","response":{},"phase":"main_study","iksi":{}},{"trial_type":"html-keyboard-response","trial_index":64,"time_elapsed":169407,"internal_node_id":"0.0-7.0-0.13","ID":"2","block_type":"mixed","rt":{},"stimulus":"<div>\n        <p> Does the following word have a positive meaning? <\/p>\n        <\/div>","response":{},"study_instruction":"semantic","letter_case":"lower","likeable":"high","target_word":"respectable","encoding_trial_type":"question","phase":"main_study","encoding_recall":"recall","iksi":{}},{"trial_type":"html-button-response","trial_index":65,"time_elapsed":170799,"internal_node_id":"0.0-7.0-1.13","ID":"2","block_type":"mixed","rt":[1391],"stimulus":"<div>\n        <p> Does the following word have a positive meaning? <\/p>\n        <p> respectable <\/p>\n        <\/div>","response":[0],"study_instruction":"semantic","letter_case":"lower","likeable":"high","target_word":"respectable","encoding_trial_type":"study_word","phase":"main_study","encoding_recall":"recall","iksi":{}},{"trial_type":"html-typing-response","trial_index":66,"time_elapsed":175279,"internal_node_id":"0.0-7.0-2.13","ID":"2","block_type":"mixed","rt":[1056,1063,1246,1367,1440,1536,1775,1983,2103,2262,2354],"stimulus":"<div>\n      <h2> Recall the last word <\/h2>\n      <p> Type the last word that you judged<\/p>\n      <\/div>","response":["r","e","s","p","e","c","t","a","b","l","e"],"study_instruction":"semantic","letter_case":"lower","likeable":"high","target_word":"respectable","phase":"study_recall","encoding_recall":"recall","iksi":[1056,7,183,121,73,96,239,208,120,159,92],"paragraph":"respectable"},{"trial_type":"html-keyboard-response","trial_index":67,"time_elapsed":175381,"internal_node_id":"0.0-7.0-3.13","ID":"2","block_type":"mixed","rt":{},"stimulus":"","response":{},"phase":"main_study","iksi":{}},{"trial_type":"html-keyboard-response","trial_index":68,"time_elapsed":178385,"internal_node_id":"0.0-7.0-0.14","ID":"2","block_type":"mixed","rt":{},"stimulus":"<div>\n        <p> Would you use the following word to describe yourself? <\/p>\n        <\/div>","response":{},"study_instruction":"self","letter_case":"upper","likeable":"low","target_word":"HYPOCRITICAL","encoding_trial_type":"question","phase":"main_study","encoding_recall":"recall","iksi":{}},{"trial_type":"html-button-response","trial_index":69,"time_elapsed":180543,"internal_node_id":"0.0-7.0-1.14","ID":"2","block_type":"mixed","rt":[2157],"stimulus":"<div>\n        <p> Would you use the following word to describe yourself? <\/p>\n        <p> HYPOCRITICAL <\/p>\n        <\/div>","response":[1],"study_instruction":"self","letter_case":"upper","likeable":"low","target_word":"HYPOCRITICAL","encoding_trial_type":"study_word","phase":"main_study","encoding_recall":"recall","iksi":{}},{"trial_type":"html-typing-response","trial_index":70,"time_elapsed":185687,"internal_node_id":"0.0-7.0-2.14","ID":"2","block_type":"mixed","rt":[1249,1465,1688,1801,2065,2249,2336,2480,2601,2719,2793,2912],"stimulus":"<div>\n      <h2> Recall the last word <\/h2>\n      <p> Type the last word that you judged<\/p>\n      <\/div>","response":["h","y","p","o","c","r","i","t","i","c","a","l"],"study_instruction":"self","letter_case":"upper","likeable":"low","target_word":"HYPOCRITICAL","phase":"study_recall","encoding_recall":"recall","iksi":[1249,216,223,113,264,184,87,144,121,118,74,119],"paragraph":"hypocritical"},{"trial_type":"html-keyboard-response","trial_index":71,"time_elapsed":185789,"internal_node_id":"0.0-7.0-3.14","ID":"2","block_type":"mixed","rt":{},"stim